type,condition1,trialNo,stim1,textColor,stimFormat,key,ITI,presTime,thisN,thisTrialN,thisRepN,press.keys,press.corr,press.rt,press.duration,stroop.thisRepN,stroop.thisTrialN,stroop.thisN,stroop.thisIndex,thisRow.t,notes,welcome.started,press_space.started,text_welcome.started,welcome.stopped,press_space.keys,press_space.rt,press_space.duration,trial.started,press.started,text_stroop.started,sound_1.started,dot.started,text_stroop.stopped,sound_1.stopped,dot.stopped,trial.stopped,stroop.press.keys,stroop.press.corr,time_fixation,fixation.started,dot_fixation.started,dot_fixation.stopped,fixation.stopped,stroop.press.rt,stroop.press.duration,thanks.started,thank_you.started,participant,session,date,expName,psychopyVersion,frameRate,expStart,
,,,,,,,,,,,,,,,,,,,,,,0.002228199999080971,0.0062034000002313405,0.0062034000002313405,6.070650700014085,space,6.052963699999964,None,,,,,,,,,,,,,,,,,,,,,Shuai,001,2025-03-10_20h46.54.639,pleaseworkstroopcontrol,2024.2.4,60.0295585560789,2025-03-10 20h47.14.762314 -0700,
test,inconsistent,21,black,yellow,word,z,800,2000,0,0,0,None,0,,,0,0,0,20,6.210425600002054,,,,,,,,,6.205799299990758,6.210425600002054,6.210425600002054,0.13480999998864718,6.278739800007315,6.278739800007315,3.3575051999941934,11.07905749999918,11.0639142,None,0,1.0188884180078546,11.064616799994837,11.07905749999918,12.123020099999849,12.080413499992574,,,,,Shuai,001,2025-03-10_20h46.54.639,pleaseworkstroopcontrol,2024.2.4,60.0295585560789,2025-03-10 20h47.14.762314 -0700,
test,consistent,38,blue,blue,word,m,800,2000,1,1,0,m,1,0.7659249999851454,None,0,1,1,37,12.123020099999849,,,,,,,,,12.118745899992064,12.123020099999849,12.123020099999849,0.03804030001629144,12.295631200016942,12.295631200016942,,,12.897995200008154,m,1,4.452153086911171,12.898672500014072,12.912574299989501,17.39206959999865,17.34709440000006,0.7659249999851454,None,,,Shuai,001,2025-03-10_20h46.54.639,pleaseworkstroopcontrol,2024.2.4,60.0295585560789,2025-03-10 20h47.14.762314 -0700,
test,inconsistent,4,red,green,word,z,800,2000,2,2,0,z,1,0.6753176999918651,None,0,2,2,3,17.39206959999865,,,,,,,,,17.3873295999947,17.39206959999865,17.39206959999865,0.040023199981078506,17.562914100009948,17.562914100009948,,,18.081877299991902,z,1,5.8576337586062115,18.082581399998162,18.09632589999819,23.9888149999897,23.931329899991397,0.6753176999918651,None,,,Shuai,001,2025-03-10_20h46.54.639,pleaseworkstroopcontrol,2024.2.4,60.0295585560789,2025-03-10 20h47.14.762314 -0700,
test,consistent,41,green,green,word,m,800,2000,3,3,0,m,1,0.8306401000008918,None,0,3,3,40,23.9888149999897,,,,,,,,,23.983621099992888,23.9888149999897,23.9888149999897,0.05181509998510592,24.147062900010496,24.147062900010496,,,24.832578400004422,m,1,2.942224611986524,24.83323270000983,24.847045900009107,27.81219319999218,27.7649148000055,0.8306401000008918,None,,,Shuai,001,2025-03-10_20h46.54.639,pleaseworkstroopcontrol,2024.2.4,60.0295585560789,2025-03-10 20h47.14.762314 -0700,
test,consistent,51,red,red,word,m,800,2000,4,4,0,m,1,0.9402248999977019,None,0,4,4,50,27.81219319999218,,,,,,,,,27.80514989999938,27.81219319999218,27.81219319999218,0.040493000007700175,27.980699000007007,27.980699000007007,,,28.76651740001398,m,1,3.8238021211446607,28.767171200015582,28.780712300009327,32.63766249999753,32.58276570000453,0.9402248999977019,None,,,Shuai,001,2025-03-10_20h46.54.639,pleaseworkstroopcontrol,2024.2.4,60.0295585560789,2025-03-10 20h47.14.762314 -0700,
test,consistent,40,yellow,yellow,word,m,800,2000,5,5,0,m,1,0.7910590000101365,None,0,5,5,39,32.63766249999753,,,,,,,,,32.6309833000123,32.63766249999753,32.63766249999753,0.04829429998062551,32.79785289999563,32.79785289999563,,,33.43318660001387,m,1,3.346666742158468,33.43395299999975,33.44774120001239,36.79747099999804,36.76539000001503,0.7910590000101365,None,,,Shuai,001,2025-03-10_20h46.54.639,pleaseworkstroopcontrol,2024.2.4,60.0295585560789,2025-03-10 20h47.14.762314 -0700,
test,inconsistent,58,yellow,red,word,z,800,2000,6,6,0,z,1,0.77772179999738,None,0,6,6,57,36.79747099999804,,,,,,,,,36.79275980000966,36.79747099999804,36.79747099999804,0.027393700001994148,36.96497100000852,36.96497100000852,,,37.58375769999111,z,1,4.0697143156287705,37.584428700007265,37.598273200012045,41.69656750001013,41.6500711000117,0.77772179999738,None,,,Shuai,001,2025-03-10_20h46.54.639,pleaseworkstroopcontrol,2024.2.4,60.0295585560789,2025-03-10 20h47.14.762314 -0700,
test,consistent,7,green,green,word,m,800,2000,7,7,0,m,1,0.5989707999979146,None,0,7,7,6,41.69656750001013,,,,,,,,,41.69017970000277,41.69656750001013,41.69656750001013,0.040343300002859905,41.8655539000174,41.8655539000174,,,42.3011506999901,m,1,5.499945704872303,42.30180869999458,42.31552969999029,47.84970479999902,47.80095569998957,0.5989707999979146,None,,,Shuai,001,2025-03-10_20h46.54.639,pleaseworkstroopcontrol,2024.2.4,60.0295585560789,2025-03-10 20h47.14.762314 -0700,
test,inconsistent,33,yellow,green,word,z,800,2000,8,8,0,z,1,0.9232100000081118,None,0,8,8,32,47.84970479999902,,,,,,,,,47.841293400008,47.84970479999902,47.84970479999902,0.04072779999114573,48.016184800013434,48.016184800013434,,,48.785063299990725,z,1,1.4874231273284546,48.78577469999436,48.79910510001355,50.30737160000717,50.26726759999292,0.9232100000081118,None,,,Shuai,001,2025-03-10_20h46.54.639,pleaseworkstroopcontrol,2024.2.4,60.0295585560789,2025-03-10 20h47.14.762314 -0700,
test,consistent,54,green,green,word,m,800,2000,9,9,0,m,1,2.605267900013132,None,0,9,9,53,50.30737160000717,,,,,,,,,50.30058790001203,50.30737160000717,50.30737160000717,0.03343569999560714,50.48295520001557,50.48295520001557,,,52.91880839999067,m,1,2.6141886119676667,52.91947630001232,52.93332549999468,55.558427200012375,55.51785229999223,2.605267900013132,None,,,Shuai,001,2025-03-10_20h46.54.639,pleaseworkstroopcontrol,2024.2.4,60.0295585560789,2025-03-10 20h47.14.762314 -0700,
test,consistent,46,yellow,yellow,word,m,800,2000,10,10,0,m,1,0.7302936000050977,None,0,10,10,45,55.558427200012375,,,,,,,,,55.54992960000527,55.558427200012375,55.558427200012375,0.03192530001979321,55.73348600001191,55.73348600001191,,,56.302141799998935,m,1,2.2139940574195607,56.30279660000815,56.31687100001727,58.52864609999233,58.50115729999379,0.7302936000050977,None,,,Shuai,001,2025-03-10_20h46.54.639,pleaseworkstroopcontrol,2024.2.4,60.0295585560789,2025-03-10 20h47.14.762314 -0700,
test,consistent,43,green,green,word,m,800,2000,11,11,0,m,1,0.6962926000123844,None,0,11,11,42,58.52864609999233,,,,,,,,,58.52214200000162,58.52864609999233,58.52864609999233,0.020926800003508106,58.716933599993354,58.716933599993354,,,59.23612509999657,m,1,1.244726139769057,59.236877699993784,59.250237500004005,60.51030890000402,60.4682667000161,0.6962926000123844,None,,,Shuai,001,2025-03-10_20h46.54.639,pleaseworkstroopcontrol,2024.2.4,60.0295585560789,2025-03-10 20h47.14.762314 -0700,
test,inconsistent,44,green,red,word,z,800,2000,12,12,0,z,1,0.8302854000066873,None,0,12,12,43,60.51030890000402,,,,,,,,,60.504016399994725,60.51030890000402,60.51030890000402,0.035991799988551065,60.68390570001793,60.68390570001793,,,61.352375399990706,z,1,4.9991059536321085,61.35303430000204,61.36745789999259,66.3827297000098,66.33549440000206,0.8302854000066873,None,,,Shuai,001,2025-03-10_20h46.54.639,pleaseworkstroopcontrol,2024.2.4,60.0295585560789,2025-03-10 20h47.14.762314 -0700,
test,inconsistent,2,yellow,green,word,z,800,2000,13,13,0,z,1,0.882202300010249,None,0,13,13,1,66.3827297000098,,,,,,,,,66.37522139999783,66.3827297000098,66.3827297000098,0.039812800008803606,66.55129910001415,66.55129910001415,,,67.27003350001178,z,1,3.494953255411686,67.27118480001809,67.28486720001092,70.80038940001396,70.75283579999814,0.882202300010249,None,,,Shuai,001,2025-03-10_20h46.54.639,pleaseworkstroopcontrol,2024.2.4,60.0295585560789,2025-03-10 20h47.14.762314 -0700,
test,inconsistent,50,yellow,green,word,z,800,2000,14,14,0,z,1,0.9983147000020836,None,0,14,14,49,70.80038940001396,,,,,,,,,70.79456589999609,70.80038940001396,70.80038940001396,0.04178159998264164,70.96839920000639,70.96839920000639,,,71.80345820001094,z,1,2.9674346450975206,71.80426020000596,71.81838959999732,74.79702190001262,74.76996430000872,0.9983147000020836,None,,,Shuai,001,2025-03-10_20h46.54.639,pleaseworkstroopcontrol,2024.2.4,60.0295585560789,2025-03-10 20h47.14.762314 -0700,
test,inconsistent,10,green,yellow,word,z,800,2000,15,15,0,z,1,0.9454077999980655,None,0,15,15,9,74.79702190001262,,,,,,,,,74.79099999999744,74.79702190001262,74.79702190001262,0.02097059998777695,74.98522920001415,74.98522920001415,,,75.75445149998995,z,1,5.0224901368359305,75.7551941999991,75.76883419998921,80.7976204000006,80.77058989999932,0.9454077999980655,None,,,Shuai,001,2025-03-10_20h46.54.639,pleaseworkstroopcontrol,2024.2.4,60.0295585560789,2025-03-10 20h47.14.762314 -0700,
test,inconsistent,55,green,yellow,word,z,800,2000,16,16,0,z,1,0.7821334000036586,None,0,16,16,54,80.7976204000006,,,,,,,,,80.79209490001085,80.7976204000006,80.7976204000006,0.02156779999495484,80.98549680001452,80.98549680001452,,,81.58809510001447,z,1,2.9688130675058635,81.58875039999839,81.602647599997,84.60689860000275,84.55407519999426,0.7821334000036586,None,,,Shuai,001,2025-03-10_20h46.54.639,pleaseworkstroopcontrol,2024.2.4,60.0295585560789,2025-03-10 20h47.14.762314 -0700,
test,inconsistent,32,orange,green,word,z,800,2000,17,17,0,z,1,0.8446311000152491,None,0,17,17,31,84.60689860000275,,,,,,,,,84.60008340000059,84.60689860000275,84.60689860000275,0.04578479999327101,84.76980259999982,84.76980259999982,,,85.45496930001536,z,1,4.382720618349383,85.45575240001199,85.46947260000161,89.86417640000582,89.83799560001353,0.8446311000152491,None,,,Shuai,001,2025-03-10_20h46.54.639,pleaseworkstroopcontrol,2024.2.4,60.0295585560789,2025-03-10 20h47.14.762314 -0700,
test,consistent,35,red,red,word,m,800,2000,18,18,0,m,1,0.9020867999934126,None,0,18,18,34,89.86417640000582,,,,,,,,,89.85851710001589,89.86417640000582,89.86417640000582,0.020660800015321,90.05340269999579,90.05340269999579,,,90.77259169999161,m,1,3.6516830873134656,90.77324929999304,90.78692430001684,94.45281409999006,94.4219190000149,0.9020867999934126,None,,,Shuai,001,2025-03-10_20h46.54.639,pleaseworkstroopcontrol,2024.2.4,60.0295585560789,2025-03-10 20h47.14.762314 -0700,
test,inconsistent,8,black,yellow,word,z,800,2000,19,19,0,z,1,0.7692706999951042,None,0,19,19,7,94.45281409999006,,,,,,,,,94.44525019999128,94.45281409999006,94.45281409999006,0.023099999991245568,94.63727989999461,94.63727989999461,,,95.23969789998955,z,1,4.831220541149535,95.24032630000147,95.25358419999247,100.08205230001477,100.05544130000635,0.7692706999951042,None,,,Shuai,001,2025-03-10_20h46.54.639,pleaseworkstroopcontrol,2024.2.4,60.0295585560789,2025-03-10 20h47.14.762314 -0700,
test,consistent,47,blue,blue,word,m,800,2000,20,20,0,m,1,0.7426966000057291,None,0,20,20,46,100.08205230001477,,,,,,,,,100.07502350001596,100.08205230001477,100.08205230001477,0.01973490000818856,100.27164809999522,100.27164809999522,,,100.84019230000558,m,1,3.96828246536003,100.84138610001537,100.85420319999685,104.83769919999759,104.80574559999513,0.7426966000057291,None,,,Shuai,001,2025-03-10_20h46.54.639,pleaseworkstroopcontrol,2024.2.4,60.0295585560789,2025-03-10 20h47.14.762314 -0700,
test,consistent,49,yellow,yellow,word,m,800,2000,21,21,0,m,1,0.8175289999926463,None,0,21,21,48,104.83769919999759,,,,,,,,,104.83048850001069,104.83769919999759,104.83769919999759,0.024727500014705583,105.02157780001289,105.02157780001289,,,105.65766530000838,m,1,5.248991652994043,105.65833420000854,105.67157510001562,110.93272440001601,110.90629879999324,0.8175289999926463,None,,,Shuai,001,2025-03-10_20h46.54.639,pleaseworkstroopcontrol,2024.2.4,60.0295585560789,2025-03-10 20h47.14.762314 -0700,
test,inconsistent,25,red,blue,word,z,800,2000,22,22,0,z,1,0.8241617000021506,None,0,22,22,24,110.93272440001601,,,,,,,,,110.9258004000003,110.93272440001601,110.93272440001601,0.019632300012744963,111.1223416000139,111.1223416000139,,,111.77421699999832,z,1,2.4245397004616995,111.77501879999181,111.78916270000627,114.22639940000954,114.19052130001364,0.8241617000021506,None,,,Shuai,001,2025-03-10_20h46.54.639,pleaseworkstroopcontrol,2024.2.4,60.0295585560789,2025-03-10 20h47.14.762314 -0700,
test,inconsistent,6,red,yellow,word,z,800,2000,23,23,0,z,1,0.9154568999947514,None,0,23,23,5,114.22639940000954,,,,,,,,,114.22175890000653,114.22639940000954,114.22639940000954,0.03132280000136234,114.40568440000061,114.40568440000061,,,115.15787530000671,z,1,4.770015706419523,115.15856129999156,115.17285500001162,119.96716430000379,119.9238452000136,0.9154568999947514,None,,,Shuai,001,2025-03-10_20h46.54.639,pleaseworkstroopcontrol,2024.2.4,60.0295585560789,2025-03-10 20h47.14.762314 -0700,
test,inconsistent,39,red,yellow,word,z,800,2000,24,24,0,z,1,0.7270011999935377,None,0,24,24,38,119.96716430000379,,,,,,,,,119.9618741000013,119.96716430000379,119.96716430000379,0.037993700010702014,120.13981469999999,120.13981469999999,,,120.70893769999384,z,1,1.534721692761157,120.70970919998945,120.72333440001239,122.27509899999131,122.24122289998922,0.7270011999935377,None,,,Shuai,001,2025-03-10_20h46.54.639,pleaseworkstroopcontrol,2024.2.4,60.0295585560789,2025-03-10 20h47.14.762314 -0700,
test,inconsistent,48,yellow,red,word,z,800,2000,25,25,0,z,1,0.8683596999908332,None,0,25,25,47,122.27509899999131,,,,,,,,,122.26826509999228,122.27509899999131,122.27509899999131,0.026785299996845424,122.45649340000818,122.45649340000818,,,123.15881650001393,z,1,4.297604652861179,123.159484600008,123.17344879999291,127.47479939999175,127.44180190001498,0.8683596999908332,None,,,Shuai,001,2025-03-10_20h46.54.639,pleaseworkstroopcontrol,2024.2.4,60.0295585560789,2025-03-10 20h47.14.762314 -0700,
test,consistent,34,green,green,word,m,800,2000,26,26,0,m,1,0.8417075999896042,None,0,26,26,33,127.47479939999175,,,,,,,,,127.46742550001363,127.47479939999175,127.47479939999175,0.02592670000740327,127.65695619999315,127.65695619999315,,,128.32610299999942,m,1,2.3371573264442853,128.32676309999079,128.34067289999803,130.69538230000762,130.6587467000063,0.8417075999896042,None,,,Shuai,001,2025-03-10_20h46.54.639,pleaseworkstroopcontrol,2024.2.4,60.0295585560789,2025-03-10 20h47.14.762314 -0700,
test,inconsistent,17,yellow,green,word,z,800,2000,27,27,0,z,1,0.7593382000050042,None,0,27,27,16,130.69538230000762,,,,,,,,,130.6911681999918,130.69538230000762,130.69538230000762,0.03216459997929633,130.87428499999805,130.87428499999805,,,131.45953630001168,z,1,1.1040536720260232,131.46036490000552,131.47424290000345,132.6152243000106,132.55817599999136,0.7593382000050042,None,,,Shuai,001,2025-03-10_20h46.54.639,pleaseworkstroopcontrol,2024.2.4,60.0295585560789,2025-03-10 20h47.14.762314 -0700,
test,inconsistent,30,blue,red,word,z,800,2000,28,28,0,z,1,0.8222003999981098,None,0,28,28,29,132.6152243000106,,,,,,,,,132.6079701000126,132.6152243000106,132.6152243000106,0.05002759999479167,132.7577592000016,132.7577592000016,,,133.44350029999623,z,1,1.4656768609565909,133.44414830001188,133.45776849999675,134.9385695999954,134.9090628999984,0.8222003999981098,None,,,Shuai,001,2025-03-10_20h46.54.639,pleaseworkstroopcontrol,2024.2.4,60.0295585560789,2025-03-10 20h47.14.762314 -0700,
test,inconsistent,22,red,yellow,word,z,800,2000,29,29,0,z,1,0.83759540002211,None,0,29,29,21,134.9385695999954,,,,,,,,,134.93314660000033,134.9385695999954,134.9385695999954,0.024025100021390244,135.12459980000858,135.12459980000858,,,135.7926037000143,z,1,2.245816640878421,135.79317759998958,135.80761829999392,138.05502030000207,138.02577500001644,0.83759540002211,None,,,Shuai,001,2025-03-10_20h46.54.639,pleaseworkstroopcontrol,2024.2.4,60.0295585560789,2025-03-10 20h47.14.762314 -0700,
test,inconsistent,29,green,blue,word,z,800,2000,30,30,0,z,1,0.8389183999970555,None,0,30,30,28,138.05502030000207,,,,,,,,,138.0491677999962,138.05502030000207,138.05502030000207,0.02334280000650324,138.24139109998941,138.24139109998941,,,138.91108700001496,z,1,4.427972637520815,138.91174390001106,138.92483080000966,143.3704790000047,143.32627859999775,0.8389183999970555,None,,,Shuai,001,2025-03-10_20h46.54.639,pleaseworkstroopcontrol,2024.2.4,60.0295585560789,2025-03-10 20h47.14.762314 -0700,
test,inconsistent,31,yellow,red,word,z,800,2000,31,31,0,z,1,1.140577399986796,None,0,31,31,30,143.3704790000047,,,,,,,,,143.3636126999918,143.3704790000047,143.3704790000047,0.03732139998464845,143.5423385000031,143.5423385000031,,,144.5273579999921,z,1,1.8399463599283263,144.5280744000047,144.54233029999887,146.4056433000078,146.36016430001473,1.140577399986796,None,,,Shuai,001,2025-03-10_20h46.54.639,pleaseworkstroopcontrol,2024.2.4,60.0295585560789,2025-03-10 20h47.14.762314 -0700,
test,inconsistent,3,blue,red,word,z,800,2000,32,32,0,z,1,0.7327380999922752,None,0,32,32,2,146.4056433000078,,,,,,,,,146.39945600001374,146.4056433000078,146.4056433000078,0.039301800017710775,146.5754855000123,146.5754855000123,,,147.14470870001242,z,1,5.0293940258214995,147.14545199999702,147.15920680001727,152.1859792000032,152.16059030001634,0.7327380999922752,None,,,Shuai,001,2025-03-10_20h46.54.639,pleaseworkstroopcontrol,2024.2.4,60.0295585560789,2025-03-10 20h47.14.762314 -0700,
test,inconsistent,24,blue,green,word,z,800,2000,33,33,0,z,1,0.732962599984603,None,0,33,33,23,152.1859792000032,,,,,,,,,152.18012330000056,152.1859792000032,152.1859792000032,0.019606399990152568,152.37612890001037,152.37612890001037,,,152.92836610000813,z,1,1.2230402678511545,152.92906900000526,152.94309489999432,154.17798680000124,154.14417559999856,0.732962599984603,None,,,Shuai,001,2025-03-10_20h46.54.639,pleaseworkstroopcontrol,2024.2.4,60.0295585560789,2025-03-10 20h47.14.762314 -0700,
test,inconsistent,15,yellow,red,word,z,800,2000,34,34,0,z,1,0.8151652000087779,None,0,34,34,14,154.17798680000124,,,,,,,,,154.1708437000052,154.17798680000124,154.17798680000124,0.02681099998881109,154.35952830000315,154.35952830000315,,,154.9959080000117,z,1,5.409839625928102,154.99658140001702,155.00987720000558,160.4220876999898,160.394904100016,0.8151652000087779,None,,,Shuai,001,2025-03-10_20h46.54.639,pleaseworkstroopcontrol,2024.2.4,60.0295585560789,2025-03-10 20h47.14.762314 -0700,
test,consistent,23,green,green,word,m,800,2000,35,35,0,m,1,0.8350797000166494,None,0,35,35,22,160.4220876999898,,,,,,,,,160.41581189999124,160.4220876999898,160.4220876999898,0.02102079999167472,160.6106345000153,160.6106345000153,,,161.262788299995,m,1,2.079341442143265,161.2635176999902,161.27688560000388,163.41154309999547,163.32847989999573,0.8350797000166494,None,,,Shuai,001,2025-03-10_20h46.54.639,pleaseworkstroopcontrol,2024.2.4,60.0295585560789,2025-03-10 20h47.14.762314 -0700,
test,inconsistent,26,green,yellow,word,z,800,2000,36,36,0,z,1,0.9796915999904741,None,0,36,36,25,163.41154309999547,,,,,,,,,163.40690649999306,163.41154309999547,163.41154309999547,0.07830939997802489,163.5441597000172,163.5441597000172,,,164.3964086000051,z,1,4.581282907214703,164.3971717999957,164.41110530000878,169.02366480001365,168.96223430000828,0.9796915999904741,None,,,Shuai,001,2025-03-10_20h46.54.639,pleaseworkstroopcontrol,2024.2.4,60.0295585560789,2025-03-10 20h47.14.762314 -0700,
test,consistent,12,yellow,yellow,word,m,800,2000,37,37,0,m,1,1.1340186000161339,None,0,37,37,11,169.02366480001365,,,,,,,,,169.01595960001578,169.02366480001365,169.02366480001365,0.05399849999230355,169.17800849999185,169.17800849999185,,,170.16385209999862,m,1,5.065909870624579,170.16452079999726,170.17831930000102,175.25832130000344,175.23022620001575,1.1340186000161339,None,,,Shuai,001,2025-03-10_20h46.54.639,pleaseworkstroopcontrol,2024.2.4,60.0295585560789,2025-03-10 20h47.14.762314 -0700,
test,consistent,1,red,red,word,m,800,2000,38,38,0,m,1,0.7108521000191104,None,0,38,38,0,175.25832130000344,,,,,,,,,175.25280809999094,175.25832130000344,175.25832130000344,0.022626100020715967,175.44515040001716,175.44515040001716,,,175.9810640999931,m,1,1.4027880223660656,175.9820304000168,175.99514079999062,177.41158330001053,177.37993019999703,0.7108521000191104,None,,,Shuai,001,2025-03-10_20h46.54.639,pleaseworkstroopcontrol,2024.2.4,60.0295585560789,2025-03-10 20h47.14.762314 -0700,
test,inconsistent,56,green,red,word,z,800,2000,39,39,0,z,1,0.7483392000140157,None,0,39,39,55,177.41158330001053,,,,,,,,,177.4044564999931,177.41158330001053,177.41158330001053,0.02473370000370778,177.5952418000088,177.5952418000088,,,178.1641876999929,z,1,5.002267576866024,178.16488409999874,178.17870650000987,183.19476810001652,183.16378870001063,0.7483392000140157,None,,,Shuai,001,2025-03-10_20h46.54.639,pleaseworkstroopcontrol,2024.2.4,60.0295585560789,2025-03-10 20h47.14.762314 -0700,
test,inconsistent,13,purple,red,word,z,800,2000,40,40,0,z,1,0.6975244999921415,None,0,40,40,12,183.19476810001652,,,,,,,,,183.1893196000019,183.19476810001652,183.19476810001652,0.02543899999000132,183.37922820000676,183.37922820000676,,,183.89813630000572,z,1,2.938218752221652,183.89879340000334,183.91287530001136,186.87472310001613,186.8309940000181,0.6975244999921415,None,,,Shuai,001,2025-03-10_20h46.54.639,pleaseworkstroopcontrol,2024.2.4,60.0295585560789,2025-03-10 20h47.14.762314 -0700,
test,inconsistent,11,green,red,word,z,800,2000,41,41,0,z,1,0.9693073000235017,None,0,41,41,10,186.87472310001613,,,,,,,,,186.8676953999966,186.87472310001613,186.87472310001613,0.037027600017609075,187.04622240000754,187.04622240000754,,,187.84827680001035,z,1,4.071622421331989,187.84907970001223,187.86294379999163,191.94095910000033,191.91439900000114,0.9693073000235017,None,,,Shuai,001,2025-03-10_20h46.54.639,pleaseworkstroopcontrol,2024.2.4,60.0295585560789,2025-03-10 20h47.14.762314 -0700,
test,inconsistent,20,red,green,word,z,800,2000,42,42,0,z,1,0.7544212999928277,None,0,42,42,19,191.94095910000033,,,,,,,,,191.9341961000173,191.94095910000033,191.94095910000033,0.019879400002537295,192.13048200000776,192.13048200000776,,,192.69916950000334,z,1,2.67294447152492,192.69986019999487,192.71358830001554,195.39255499999854,195.3651424999989,0.7544212999928277,None,,,Shuai,001,2025-03-10_20h46.54.639,pleaseworkstroopcontrol,2024.2.4,60.0295585560789,2025-03-10 20h47.14.762314 -0700,
test,inconsistent,19,green,red,word,z,800,2000,43,43,0,z,1,0.7650161000201479,None,0,43,43,18,195.39255499999854,,,,,,,,,195.38557089999085,195.39255499999854,195.39255499999854,0.020493899995926768,195.58062860000064,195.58062860000064,,,196.16628000000492,z,1,5.3649553809343296,196.1669319999928,196.1806884999969,201.54214629999478,201.515610500006,0.7650161000201479,None,,,Shuai,001,2025-03-10_20h46.54.639,pleaseworkstroopcontrol,2024.2.4,60.0295585560789,2025-03-10 20h47.14.762314 -0700,
test,inconsistent,52,red,green,word,z,800,2000,44,44,0,z,1,0.6912096000160091,None,0,44,44,51,201.54214629999478,,,,,,,,,201.5357112000056,201.54214629999478,201.54214629999478,0.01989809999940917,201.73108500000671,201.73108500000671,,,202.249664700008,z,1,4.8723741687366,202.25031730000046,202.26465650001774,207.14437120000366,207.11631879999186,0.6912096000160091,None,,,Shuai,001,2025-03-10_20h46.54.639,pleaseworkstroopcontrol,2024.2.4,60.0295585560789,2025-03-10 20h47.14.762314 -0700,
test,consistent,28,yellow,yellow,word,m,800,2000,45,45,0,m,1,0.950726900016889,None,0,45,45,27,207.14437120000366,,,,,,,,,207.1376460000174,207.14437120000366,207.14437120000366,0.021355600008973852,207.33170619999873,207.33170619999873,,,208.10026579999248,m,1,4.750837235405832,208.10098740001558,208.11524020001525,212.87690130001283,212.85001369999372,0.950726900016889,None,,,Shuai,001,2025-03-10_20h46.54.639,pleaseworkstroopcontrol,2024.2.4,60.0295585560789,2025-03-10 20h47.14.762314 -0700,
test,inconsistent,9,red,blue,word,z,800,2000,46,46,0,z,1,0.9359917000110727,None,0,46,46,8,212.87690130001283,,,,,,,,,212.870436600002,212.87690130001283,212.87690130001283,0.020505699998466298,213.06570890001603,213.06570890001603,,,213.8179058000096,z,1,4.475484598150364,213.81863500000327,213.83228800000506,218.3086115999904,218.28389089999837,0.9359917000110727,None,,,Shuai,001,2025-03-10_20h46.54.639,pleaseworkstroopcontrol,2024.2.4,60.0295585560789,2025-03-10 20h47.14.762314 -0700,
test,inconsistent,27,green,red,word,z,800,2000,47,47,0,z,1,1.185885499988217,None,0,47,47,26,218.3086115999904,,,,,,,,,218.30250630000955,218.3086115999904,218.3086115999904,0.018779700010782108,218.49921169999288,218.49921169999288,,,219.50155049999012,z,1,5.478858200436484,219.5022547999979,219.5163836000138,224.99537920000148,224.96801280000363,1.185885499988217,None,,,Shuai,001,2025-03-10_20h46.54.639,pleaseworkstroopcontrol,2024.2.4,60.0295585560789,2025-03-10 20h47.14.762314 -0700,
test,inconsistent,37,red,green,word,z,800,2000,48,48,0,z,1,0.6926252999983262,None,0,48,48,36,224.99537920000148,,,,,,,,,224.99000290001277,224.99537920000148,224.99537920000148,0.021974200004478917,225.18323329999112,225.18323329999112,,,225.70195499999681,z,1,3.661034716398091,225.70266609999817,225.71673980000196,229.38084870000603,229.35180860001128,0.6926252999983262,None,,,Shuai,001,2025-03-10_20h46.54.639,pleaseworkstroopcontrol,2024.2.4,60.0295585560789,2025-03-10 20h47.14.762314 -0700,
test,inconsistent,42,green,yellow,word,z,800,2000,49,49,0,z,1,0.8183731000171974,None,0,49,49,41,229.38084870000603,,,,,,,,,229.37494450001395,229.38084870000603,229.38084870000603,0.023199599992949516,229.5673136000114,229.5673136000114,,,230.2032329000067,z,1,3.0058331863315866,230.20389000000432,230.21732250001514,233.23043990001315,233.20201139998971,0.8183731000171974,None,,,Shuai,001,2025-03-10_20h46.54.639,pleaseworkstroopcontrol,2024.2.4,60.0295585560789,2025-03-10 20h47.14.762314 -0700,
test,inconsistent,59,yellow,green,word,z,800,2000,50,50,0,z,1,0.8371225000009872,None,0,50,50,58,233.23043990001315,,,,,,,,,233.2236753999896,233.23043990001315,233.23043990001315,0.021606700000120327,233.41781129999436,233.41781129999436,,,234.07065730000613,z,1,1.6893408165577934,234.07149830000708,234.0842927999911,235.776039999997,235.75191059999634,0.8371225000009872,None,,,Shuai,001,2025-03-10_20h46.54.639,pleaseworkstroopcontrol,2024.2.4,60.0295585560789,2025-03-10 20h47.14.762314 -0700,
test,consistent,18,red,red,word,m,800,2000,51,51,0,m,1,0.7117006999906152,None,0,51,51,17,235.776039999997,,,,,,,,,235.7696197000041,235.776039999997,235.776039999997,0.01805930002592504,235.96876950000296,235.96876950000296,,,236.50317909999285,m,1,5.44561134295078,236.50395640000352,236.51824520001537,241.98014940001303,241.93573800000013,0.7117006999906152,None,,,Shuai,001,2025-03-10_20h46.54.639,pleaseworkstroopcontrol,2024.2.4,60.0295585560789,2025-03-10 20h47.14.762314 -0700,
test,consistent,45,red,red,word,m,800,2000,52,52,0,m,1,0.6424052999936976,None,0,52,52,44,241.98014940001303,,,,,,,,,241.97393239999656,241.98014940001303,241.98014940001303,0.03826069997739978,242.1542616999941,242.1542616999941,,,242.6371080999961,m,1,5.400298009798026,242.63787100001355,242.65163000000757,248.06009260000428,248.03687189999619,0.6424052999936976,None,,,Shuai,001,2025-03-10_20h46.54.639,pleaseworkstroopcontrol,2024.2.4,60.0295585560789,2025-03-10 20h47.14.762314 -0700,
test,inconsistent,53,red,yellow,word,z,800,2000,53,53,0,z,1,0.752748300001258,None,0,53,53,52,248.06009260000428,,,,,,,,,248.0547374000016,248.06009260000428,248.06009260000428,0.017875100020319223,248.2522558000055,248.2522558000055,,,248.8213505000167,z,1,3.108148345187904,248.82203030001256,248.83580800000345,251.94614189999993,251.92045350000262,0.752748300001258,None,,,Shuai,001,2025-03-10_20h46.54.639,pleaseworkstroopcontrol,2024.2.4,60.0295585560789,2025-03-10 20h47.14.762314 -0700,
test,inconsistent,16,red,green,word,z,800,2000,54,54,0,z,1,0.8919570000143722,None,0,54,54,15,251.94614189999993,,,,,,,,,251.9403452000115,251.94614189999993,251.94614189999993,0.01979859999846667,252.1362471000175,252.1362471000175,,,252.854299300001,z,1,3.225127942837646,252.85515899999882,252.8693326000066,256.1134733000072,256.0710361000092,0.8919570000143722,None,,,Shuai,001,2025-03-10_20h46.54.639,pleaseworkstroopcontrol,2024.2.4,60.0295585560789,2025-03-10 20h47.14.762314 -0700,
test,inconsistent,14,yellow,blue,word,z,800,2000,55,55,0,z,1,0.8695845999754965,None,0,55,55,13,256.1134733000072,,,,,,,,,256.1062004000123,256.1134733000072,256.1134733000072,0.035276399983558804,256.2865538999904,256.2865538999904,,,256.9892258000036,z,1,4.130981643146416,256.99000940000406,257.00318040000275,261.1314275999903,261.10470950001036,0.8695845999754965,None,,,Shuai,001,2025-03-10_20h46.54.639,pleaseworkstroopcontrol,2024.2.4,60.0295585560789,2025-03-10 20h47.14.762314 -0700,
test,consistent,57,yellow,yellow,word,m,800,2000,56,56,0,m,1,0.665489000006346,None,0,56,56,56,261.1314275999903,,,,,,,,,261.12481619999744,261.1314275999903,261.1314275999903,0.020147800008999184,261.32018790001166,261.32018790001166,,,261.8054644000076,m,1,4.982621136530993,261.80618020001566,261.82072940000216,266.81927830001223,266.7888132999942,0.665489000006346,None,,,Shuai,001,2025-03-10_20h46.54.639,pleaseworkstroopcontrol,2024.2.4,60.0295585560789,2025-03-10 20h47.14.762314 -0700,
test,inconsistent,5,orange,blue,word,z,800,2000,57,57,0,z,1,0.6272080999915488,None,0,57,57,4,266.81927830001223,,,,,,,,,266.81246439999086,266.81927830001223,266.81927830001223,0.02380789999733679,267.00416330000735,267.00416330000735,,,267.4561973999953,z,1,3.4086879340410334,267.45688060001703,267.4710097000061,270.88584470000933,270.85545460000867,0.6272080999915488,None,,,Shuai,001,2025-03-10_20h46.54.639,pleaseworkstroopcontrol,2024.2.4,60.0295585560789,2025-03-10 20h47.14.762314 -0700,
test,consistent,36,red,red,word,m,800,2000,58,58,0,m,1,0.832293599989498,None,0,58,58,35,270.88584470000933,,,,,,,,,270.87942230000044,270.88584470000933,270.88584470000933,0.024016300012590364,271.0713145000045,271.0713145000045,,,271.7234953000152,m,1,2.576473702264744,271.72428789999685,271.7386850999901,274.317426900001,274.28917930001626,0.832293599989498,None,,,Shuai,001,2025-03-10_20h46.54.639,pleaseworkstroopcontrol,2024.2.4,60.0295585560789,2025-03-10 20h47.14.762314 -0700,
test,inconsistent,30,blue,red,word,z,800,2000,59,0,1,z,1,0.6391691000026185,None,1,0,59,29,274.317426900001,,,,,,,,,274.3095946999965,274.317426900001,274.317426900001,0.02081810001982376,274.50477550001233,274.50477550001233,,,274.97381600001245,z,1,1.3447145973753059,274.9744944999984,274.9884674999921,276.3350289000082,276.3066631999973,0.6391691000026185,None,,,Shuai,001,2025-03-10_20h46.54.639,pleaseworkstroopcontrol,2024.2.4,60.0295585560789,2025-03-10 20h47.14.762314 -0700,
test,inconsistent,58,yellow,red,word,z,800,2000,60,1,1,z,1,0.7098399999958929,None,1,1,60,57,276.3350289000082,,,,,,,,,276.32862290000776,276.3350289000082,276.3350289000082,0.021890200005145743,276.52220350000425,276.52220350000425,,,277.0571120000095,z,1,4.036795881189954,277.0577844000072,277.07195040001534,281.12030480001704,281.0900552000094,0.7098399999958929,None,,,Shuai,001,2025-03-10_20h46.54.639,pleaseworkstroopcontrol,2024.2.4,60.0295585560789,2025-03-10 20h47.14.762314 -0700,
test,inconsistent,21,black,yellow,word,z,800,2000,61,2,1,z,1,0.6440139999904204,None,1,2,61,20,281.12030480001704,,,,,,,,,281.1142628999951,281.12030480001704,281.12030480001704,0.02420670000719838,281.3053925000131,281.3053925000131,,,281.77462159999413,z,1,5.017972527703865,281.77543680000235,281.78899229998933,286.8219432999904,286.79108039999846,0.6440139999904204,None,,,Shuai,001,2025-03-10_20h46.54.639,pleaseworkstroopcontrol,2024.2.4,60.0295585560789,2025-03-10 20h47.14.762314 -0700,
test,inconsistent,53,red,yellow,word,z,800,2000,62,3,1,z,1,0.6611028000188526,None,1,3,62,52,286.8219432999904,,,,,,,,,286.8153183000104,286.8219432999904,286.8219432999904,0.02456799999345094,287.0062474000151,287.0062474000151,,,287.49213950001285,z,1,3.3345783820252834,287.49280179999187,287.50599770000554,290.85494990000734,290.8243502000114,0.6611028000188526,None,,,Shuai,001,2025-03-10_20h46.54.639,pleaseworkstroopcontrol,2024.2.4,60.0295585560789,2025-03-10 20h47.14.762314 -0700,
test,inconsistent,31,yellow,red,word,z,800,2000,63,4,1,z,1,0.8198651999991853,None,1,4,63,30,290.85494990000734,,,,,,,,,290.8468845000025,290.85494990000734,290.85494990000734,0.02270689999568276,291.04002970000147,291.04002970000147,,,291.6923894000065,z,1,3.3348735503219076,291.6931742000161,291.7065036999993,295.0605801999918,295.0248607000103,0.8198651999991853,None,,,Shuai,001,2025-03-10_20h46.54.639,pleaseworkstroopcontrol,2024.2.4,60.0295585560789,2025-03-10 20h47.14.762314 -0700,
test,consistent,35,red,red,word,m,800,2000,64,5,1,m,1,0.6874795999901835,None,1,5,64,34,295.0605801999918,,,,,,,,,295.0545640999917,295.0605801999918,295.0605801999918,0.029789500025799498,295.2400808999955,295.2400808999955,,,295.7590640000126,m,1,1.1971111852340546,295.75972669999464,295.7737594000064,296.9750655000098,296.94173940000474,0.6874795999901835,None,,,Shuai,001,2025-03-10_20h46.54.639,pleaseworkstroopcontrol,2024.2.4,60.0295585560789,2025-03-10 20h47.14.762314 -0700,
test,inconsistent,5,orange,blue,word,z,800,2000,65,6,1,z,1,0.6308951999817509,None,1,6,65,4,296.9750655000098,,,,,,,,,296.9678690000146,296.9750655000098,296.9750655000098,0.026136000000406057,297.15705810001236,297.15705810001236,,,297.6091041000036,z,1,2.2017696026834335,297.60975000000326,297.6240179000015,299.83290820001275,299.80884350000997,0.6308951999817509,None,,,Shuai,001,2025-03-10_20h46.54.639,pleaseworkstroopcontrol,2024.2.4,60.0295585560789,2025-03-10 20h47.14.762314 -0700,
test,consistent,45,red,red,word,m,800,2000,66,7,1,m,1,0.6151920999982394,None,1,7,66,44,299.83290820001275,,,,,,,,,299.8283427999995,299.83290820001275,299.83290820001275,0.01938399998471141,300.02415889999247,300.02415889999247,,,300.45960410000407,m,1,3.729394685079083,300.4603874000022,300.47426750001614,304.2113556000113,304.1759340999997,0.6151920999982394,None,,,Shuai,001,2025-03-10_20h46.54.639,pleaseworkstroopcontrol,2024.2.4,60.0295585560789,2025-03-10 20h47.14.762314 -0700,
test,consistent,46,yellow,yellow,word,m,800,2000,67,8,1,m,1,0.9379607000155374,None,1,8,67,45,304.2113556000113,,,,,,,,,304.2033422999957,304.2113556000113,304.2113556000113,0.02752520001376979,304.39133400001447,304.39133400001447,,,305.1602611000126,m,1,5.662179419332974,305.16097339999396,305.1748693000118,310.8371135999914,310.8094345999998,0.9379607000155374,None,,,Shuai,001,2025-03-10_20h46.54.639,pleaseworkstroopcontrol,2024.2.4,60.0295585560789,2025-03-10 20h47.14.762314 -0700,
test,inconsistent,9,red,blue,word,z,800,2000,68,9,1,z,1,0.6856430000043474,None,1,9,68,8,310.8371135999914,,,,,,,,,310.8313238999981,310.8371135999914,310.8371135999914,0.022115200001280755,311.0251430000062,311.0251430000062,,,311.5274156999949,z,1,3.9997201391468664,311.52806730000884,311.54204510001,315.5550437000056,315.52686780001386,0.6856430000043474,None,,,Shuai,001,2025-03-10_20h46.54.639,pleaseworkstroopcontrol,2024.2.4,60.0295585560789,2025-03-10 20h47.14.762314 -0700,
test,consistent,7,green,green,word,m,800,2000,69,10,1,m,1,0.89246929998626,None,1,10,69,6,315.5550437000056,,,,,,,,,315.5485239000118,315.5550437000056,315.5550437000056,0.02175429998897016,315.7424136000045,315.7424136000045,,,316.46122820000164,m,1,5.458959496847356,316.4619090000051,316.47648889999255,321.97832819999894,321.9106194000051,0.89246929998626,None,,,Shuai,001,2025-03-10_20h46.54.639,pleaseworkstroopcontrol,2024.2.4,60.0295585560789,2025-03-10 20h47.14.762314 -0700,
test,inconsistent,3,blue,red,word,z,800,2000,70,11,1,z,1,1.81899549998343,None,1,11,70,2,321.97832819999894,,,,,,,,,321.97119660000317,321.97832819999894,321.97832819999894,0.060677100002067164,322.1265263000096,322.1265263000096,,,323.8119757999957,z,1,5.313738495656535,323.8126981999958,323.8265144000179,329.14051570001175,329.11162400001194,1.81899549998343,None,,,Shuai,001,2025-03-10_20h46.54.639,pleaseworkstroopcontrol,2024.2.4,60.0295585560789,2025-03-10 20h47.14.762314 -0700,
test,consistent,54,green,green,word,m,800,2000,71,12,1,m,1,0.9810072999971453,None,1,12,71,53,329.14051570001175,,,,,,,,,329.1335154999979,329.14051570001175,329.14051570001175,0.022123800008557737,329.3271303999936,329.3271303999936,,,330.12953770000604,m,1,2.9334950689746733,330.1302297000075,330.14370580000104,333.09255200001644,333.0619706000143,0.9810072999971453,None,,,Shuai,001,2025-03-10_20h46.54.639,pleaseworkstroopcontrol,2024.2.4,60.0295585560789,2025-03-10 20h47.14.762314 -0700,
test,inconsistent,13,purple,red,word,z,800,2000,72,13,1,z,1,0.7898529999947641,None,1,13,72,12,333.09255200001644,,,,,,,,,333.0844236999983,333.09255200001644,333.09255200001644,0.022678099980112165,333.27739920001477,333.27739920001477,,,333.8962223000126,z,1,1.379926073373698,333.89702259999467,333.9108799000096,335.3085005999892,335.2619670999993,0.7898529999947641,None,,,Shuai,001,2025-03-10_20h46.54.639,pleaseworkstroopcontrol,2024.2.4,60.0295585560789,2025-03-10 20h47.14.762314 -0700,
test,inconsistent,11,green,red,word,z,800,2000,73,14,1,z,1,0.9337157999980263,None,1,14,73,10,335.3085005999892,,,,,,,,,335.30223460000707,335.3085005999892,335.3085005999892,0.04034990002401173,335.4776981000032,335.4776981000032,,,336.24619790000725,z,1,3.9667749327471347,336.24696039999253,336.26106839999557,340.24593740000273,340.21270110001205,0.9337157999980263,None,,,Shuai,001,2025-03-10_20h46.54.639,pleaseworkstroopcontrol,2024.2.4,60.0295585560789,2025-03-10 20h47.14.762314 -0700,
test,consistent,47,blue,blue,word,m,800,2000,74,15,1,m,1,0.674793000012869,None,1,15,74,46,340.24593740000273,,,,,,,,,340.23914730001707,340.24593740000273,340.24593740000273,0.026572300004772842,340.4283906999917,340.4283906999917,,,340.93020530001377,m,1,4.888247611443072,340.9309227000049,340.944757499994,345.84252070001094,345.81282349998946,0.674793000012869,None,,,Shuai,001,2025-03-10_20h46.54.639,pleaseworkstroopcontrol,2024.2.4,60.0295585560789,2025-03-10 20h47.14.762314 -0700,
test,inconsistent,32,orange,green,word,z,800,2000,75,16,1,z,1,0.6521622999862302,None,1,16,75,31,345.84252070001094,,,,,,,,,345.8351309999998,345.84252070001094,345.84252070001094,0.022403599985409528,346.0286194999935,346.0286194999935,,,346.49814330000663,z,1,1.1382233679544609,346.4990958000126,346.51213980000466,347.69699260001653,347.6298977000115,0.6521622999862302,None,,,Shuai,001,2025-03-10_20h46.54.639,pleaseworkstroopcontrol,2024.2.4,60.0295585560789,2025-03-10 20h47.14.762314 -0700,
test,inconsistent,27,green,red,word,z,800,2000,76,17,1,z,1,0.7402553000138141,None,1,17,76,26,347.69699260001653,,,,,,,,,347.6898676000128,347.69699260001653,347.69699260001653,0.059903600020334125,347.8456576000026,347.8456576000026,,,348.44760780001525,z,1,5.4536385405105925,348.4483608000155,348.4623644000094,353.9299498999899,353.89745650000987,0.7402553000138141,None,,,Shuai,001,2025-03-10_20h46.54.639,pleaseworkstroopcontrol,2024.2.4,60.0295585560789,2025-03-10 20h47.14.762314 -0700,
test,consistent,1,red,red,word,m,800,2000,77,18,1,m,1,0.7681360999995377,None,1,18,77,0,353.9299498999899,,,,,,,,,353.92324969999027,353.9299498999899,353.9299498999899,0.02604969998355955,354.1127736000053,354.1127736000053,,,354.71483380001155,m,1,5.907920208652233,354.7155330000096,354.7292623000103,360.6785436999926,360.61354039999424,0.7681360999995377,None,,,Shuai,001,2025-03-10_20h46.54.639,pleaseworkstroopcontrol,2024.2.4,60.0295585560789,2025-03-10 20h47.14.762314 -0700,
test,consistent,18,red,red,word,m,800,2000,78,19,1,m,1,0.7157936999865342,None,1,19,78,17,360.6785436999926,,,,,,,,,360.6734925000055,360.6785436999926,360.6785436999926,0.060407100012525916,360.8131752999907,360.8131752999907,,,361.39818610000657,m,1,4.3622344223475835,361.3986504999921,361.4131208000181,365.77755990001606,365.7484250999987,0.7157936999865342,None,,,Shuai,001,2025-03-10_20h46.54.639,pleaseworkstroopcontrol,2024.2.4,60.0295585560789,2025-03-10 20h47.14.762314 -0700,
test,inconsistent,37,red,green,word,z,800,2000,79,20,1,z,1,0.6186221999814734,None,1,20,79,36,365.77755990001606,,,,,,,,,365.7731037999911,365.77755990001606,365.77755990001606,0.02474449999863282,365.9636320999998,365.9636320999998,,,366.40009060001466,z,1,4.882258394493666,366.4011584999971,366.413764500001,371.30987200001255,371.28235019999556,0.6186221999814734,None,,,Shuai,001,2025-03-10_20h46.54.639,pleaseworkstroopcontrol,2024.2.4,60.0295585560789,2025-03-10 20h47.14.762314 -0700,
test,inconsistent,42,green,yellow,word,z,800,2000,80,21,1,z,1,0.620522900018841,None,1,21,80,41,371.30987200001255,,,,,,,,,371.30261139999493,371.30987200001255,371.30987200001255,0.020526800013612956,371.49816889999784,371.49816889999784,,,371.93384509999305,z,1,4.8629720466004,371.934536100016,371.94861660001334,376.81396689999383,376.7831145999953,0.620522900018841,None,,,Shuai,001,2025-03-10_20h46.54.639,pleaseworkstroopcontrol,2024.2.4,60.0295585560789,2025-03-10 20h47.14.762314 -0700,
test,inconsistent,39,red,yellow,word,z,800,2000,81,22,1,z,1,0.7049837000085972,None,1,22,81,38,376.81396689999383,,,,,,,,,376.80739860000904,376.81396689999383,376.81396689999383,0.02433839999139309,376.9987103000167,376.9987103000167,,,377.5341565000126,z,1,1.7561862514933,377.5349897000124,377.54860939999344,379.3130390000006,379.28311839999515,0.7049837000085972,None,,,Shuai,001,2025-03-10_20h46.54.639,pleaseworkstroopcontrol,2024.2.4,60.0295585560789,2025-03-10 20h47.14.762314 -0700,
test,consistent,49,yellow,yellow,word,m,800,2000,82,23,1,m,1,0.8437620000040624,None,1,23,82,48,379.3130390000006,,,,,,,,,379.3054243999941,379.3130390000006,379.3130390000006,0.022356700006639585,379.4986365000077,379.4986365000077,,,380.1670860000013,m,1,2.5973619470881606,380.1682220000075,380.1819519000128,382.7764299999981,382.7500385000021,0.8437620000040624,None,,,Shuai,001,2025-03-10_20h46.54.639,pleaseworkstroopcontrol,2024.2.4,60.0295585560789,2025-03-10 20h47.14.762314 -0700,
test,inconsistent,6,red,yellow,word,z,800,2000,83,24,1,z,1,0.7289401000016369,None,1,24,83,5,382.7764299999981,,,,,,,,,382.7709351000085,382.7764299999981,382.7764299999981,0.020892800006549805,382.96570339999744,382.96570339999744,,,383.51768620000803,z,1,5.298842949712684,383.5184466000064,383.5324063000153,388.83294180000667,388.80061420000857,0.7289401000016369,None,,,Shuai,001,2025-03-10_20h46.54.639,pleaseworkstroopcontrol,2024.2.4,60.0295585560789,2025-03-10 20h47.14.762314 -0700,
test,inconsistent,50,yellow,green,word,z,800,2000,84,25,1,z,1,0.7081053000001702,None,1,25,84,49,388.83294180000667,,,,,,,,,388.826458800002,388.83294180000667,388.83294180000667,0.02595479998853989,389.016082999995,389.016082999995,,,389.55191999999806,z,1,1.3483013268615998,389.552677700005,389.5660939000081,390.93122150001,390.90067430000636,0.7081053000001702,None,,,Shuai,001,2025-03-10_20h46.54.639,pleaseworkstroopcontrol,2024.2.4,60.0295585560789,2025-03-10 20h47.14.762314 -0700,
test,inconsistent,56,green,red,word,z,800,2000,85,26,1,z,1,0.7658232000248972,None,1,26,85,55,390.93122150001,,,,,,,,,390.92439850000665,390.93122150001,390.93122150001,0.02376019998337142,391.11624540001503,391.11624540001503,,,391.7017379000026,z,1,2.4933351304133153,391.7024175999977,391.71639990000403,394.20672270000796,394.1843524000142,0.7658232000248972,None,,,Shuai,001,2025-03-10_20h46.54.639,pleaseworkstroopcontrol,2024.2.4,60.0295585560789,2025-03-10 20h47.14.762314 -0700,
test,inconsistent,19,green,red,word,z,800,2000,86,27,1,z,1,0.6987221000017598,None,1,27,86,18,394.20672270000796,,,,,,,,,394.20053010000265,394.20672270000796,394.20672270000796,0.016054100007750094,394.4002465000085,394.4002465000085,,,394.91881309999735,z,1,5.691055717473038,394.9196573999943,394.9334954000078,400.6254631000047,400.6016870000167,0.6987221000017598,None,,,Shuai,001,2025-03-10_20h46.54.639,pleaseworkstroopcontrol,2024.2.4,60.0295585560789,2025-03-10 20h47.14.762314 -0700,
test,consistent,34,green,green,word,m,800,2000,87,28,1,m,1,0.7526088000158779,None,1,28,87,33,400.6254631000047,,,,,,,,,400.6197155000118,400.6254631000047,400.6254631000047,0.018286400008946657,400.8172869000118,400.8172869000118,,,401.38637759999256,m,1,3.5132735446185865,401.3873666000145,401.40070279999054,404.91019650001545,404.88569540000753,0.7526088000158779,None,,,Shuai,001,2025-03-10_20h46.54.639,pleaseworkstroopcontrol,2024.2.4,60.0295585560789,2025-03-10 20h47.14.762314 -0700,
test,consistent,51,red,red,word,m,800,2000,88,29,1,m,1,0.7693351000198163,None,1,29,88,50,404.91019650001545,,,,,,,,,404.9033994000056,404.91019650001545,404.91019650001545,0.017794899991713464,405.1014960000175,405.1014960000175,,,405.6868247000093,m,1,1.5013513784561123,405.687588700006,405.7014026000106,407.2093574000173,407.18578090000665,0.7693351000198163,None,,,Shuai,001,2025-03-10_20h46.54.639,pleaseworkstroopcontrol,2024.2.4,60.0295585560789,2025-03-10 20h47.14.762314 -0700,
test,inconsistent,20,red,green,word,z,800,2000,89,30,1,z,1,0.8721750999975484,None,1,30,89,19,407.2093574000173,,,,,,,,,407.2033875999914,407.2093574000173,407.2093574000173,0.017356300028041005,407.401354600006,407.401354600006,,,408.08701809999184,z,1,3.6305837035410184,408.08783639999456,408.1016909000173,411.7271577999927,411.7028946999926,0.8721750999975484,None,,,Shuai,001,2025-03-10_20h46.54.639,pleaseworkstroopcontrol,2024.2.4,60.0295585560789,2025-03-10 20h47.14.762314 -0700,
test,inconsistent,4,red,green,word,z,800,2000,90,31,1,z,1,0.9210106999962591,None,1,31,90,3,411.7271577999927,,,,,,,,,411.7213716999977,411.7271577999927,411.7271577999927,0.01840879998053424,411.91842090000864,411.91842090000864,,,412.65428690001136,z,1,3.878433052184483,412.6552958000102,412.6683719000139,416.54604260000633,416.5201775000023,0.9210106999962591,None,,,Shuai,001,2025-03-10_20h46.54.639,pleaseworkstroopcontrol,2024.2.4,60.0295585560789,2025-03-10 20h47.14.762314 -0700,
test,consistent,57,yellow,yellow,word,m,800,2000,91,32,1,m,1,0.8310041999793611,None,1,32,91,56,416.54604260000633,,,,,,,,,416.54089800000656,416.54604260000633,416.54604260000633,0.020430400007171556,416.7357273999951,416.7357273999951,,,417.3881726000109,m,1,3.3952629050025465,417.3889718000137,417.4023359999992,420.7990695000044,420.77004649999435,0.8310041999793611,None,,,Shuai,001,2025-03-10_20h46.54.639,pleaseworkstroopcontrol,2024.2.4,60.0295585560789,2025-03-10 20h47.14.762314 -0700,
test,inconsistent,55,green,yellow,word,z,800,2000,92,33,1,z,1,0.8181793999974616,None,1,33,92,54,420.7990695000044,,,,,,,,,420.7926163999946,420.7990695000044,420.7990695000044,0.02275010000448674,420.98615340000833,420.98615340000833,,,421.6213571999979,z,1,3.469278708890194,421.62200100001064,421.63608500000555,425.121959400014,425.0877998000069,0.8181793999974616,None,,,Shuai,001,2025-03-10_20h46.54.639,pleaseworkstroopcontrol,2024.2.4,60.0295585560789,2025-03-10 20h47.14.762314 -0700,
test,inconsistent,8,black,yellow,word,z,800,2000,93,34,1,z,1,0.9229720000002999,None,1,34,93,7,425.121959400014,,,,,,,,,425.1151136000117,425.121959400014,425.121959400014,0.02732389999437146,425.3033287000144,425.3033287000144,,,426.0561311999918,z,1,5.071718149712878,426.05705810000654,426.0695863000001,431.1526240000094,431.12119939998956,0.9229720000002999,None,,,Shuai,001,2025-03-10_20h46.54.639,pleaseworkstroopcontrol,2024.2.4,60.0295585560789,2025-03-10 20h47.14.762314 -0700,
test,inconsistent,10,green,yellow,word,z,800,2000,94,35,1,z,1,0.7059016000130214,None,1,35,94,9,431.1526240000094,,,,,,,,,431.1458907999913,431.1526240000094,431.1526240000094,0.024958299996796995,431.33714720001444,431.33714720001444,,,431.87253530000453,z,1,4.95992572734967,431.87321290001273,431.88715399999637,436.8483879000123,436.82202540000435,0.7059016000130214,None,,,Shuai,001,2025-03-10_20h46.54.639,pleaseworkstroopcontrol,2024.2.4,60.0295585560789,2025-03-10 20h47.14.762314 -0700,
test,inconsistent,22,red,yellow,word,z,800,2000,95,36,1,z,1,0.5814403000113089,None,1,36,95,21,436.8483879000123,,,,,,,,,436.8417580999958,436.8483879000123,436.8483879000123,0.02006239999900572,437.0375665000174,437.0375665000174,,,437.4398490000167,z,1,5.5147155303358035,437.44053710001754,437.45455769999535,442.9873332999996,442.9393839999975,0.5814403000113089,None,,,Shuai,001,2025-03-10_20h46.54.639,pleaseworkstroopcontrol,2024.2.4,60.0295585560789,2025-03-10 20h47.14.762314 -0700,
test,consistent,38,blue,blue,word,m,800,2000,96,37,1,m,1,0.7635788999905344,None,1,37,96,37,442.9873332999996,,,,,,,,,442.98053719999734,442.9873332999996,442.9873332999996,0.04120829998282716,443.1550025000179,443.1550025000179,,,443.757162599999,m,1,5.116030695208307,443.7578599000117,443.77178080001613,448.9075429000077,448.873282799992,0.7635788999905344,None,,,Shuai,001,2025-03-10_20h46.54.639,pleaseworkstroopcontrol,2024.2.4,60.0295585560789,2025-03-10 20h47.14.762314 -0700,
test,inconsistent,33,yellow,green,word,z,800,2000,97,38,1,z,1,0.6665668999776244,None,1,38,97,32,448.9075429000077,,,,,,,,,448.90033850001055,448.9075429000077,448.9075429000077,0.027176100003998727,449.08885970001575,449.08885970001575,,,449.59088500001235,z,1,5.495144902574343,449.5915351000149,449.605727999995,455.10692109999945,455.0738842000137,0.6665668999776244,None,,,Shuai,001,2025-03-10_20h46.54.639,pleaseworkstroopcontrol,2024.2.4,60.0295585560789,2025-03-10 20h47.14.762314 -0700,
test,inconsistent,52,red,green,word,z,800,2000,98,39,1,z,1,0.7094479000079446,None,1,39,98,51,455.10692109999945,,,,,,,,,455.1010401000094,455.10692109999945,455.10692109999945,0.027125799999339506,455.2895569000102,455.2895569000102,,,455.82482770000934,z,1,1.69623329024677,455.8256484000012,455.83947599999374,457.53863080000156,457.50781129999086,0.7094479000079446,None,,,Shuai,001,2025-03-10_20h46.54.639,pleaseworkstroopcontrol,2024.2.4,60.0295585560789,2025-03-10 20h47.14.762314 -0700,
test,consistent,28,yellow,yellow,word,m,800,2000,99,40,1,m,1,0.6538721000251826,None,1,40,99,27,457.53863080000156,,,,,,,,,457.5309983000043,457.53863080000156,457.53863080000156,0.02327590002096258,457.7228611000173,457.7228611000173,,,458.20878320001066,m,1,2.5412170930664675,458.20946760001243,458.2231458000024,460.76822890000767,460.7407116999966,0.6538721000251826,None,,,Shuai,001,2025-03-10_20h46.54.639,pleaseworkstroopcontrol,2024.2.4,60.0295585560789,2025-03-10 20h47.14.762314 -0700,
test,inconsistent,26,green,yellow,word,z,800,2000,100,41,1,z,1,0.6513577000005171,None,1,41,100,25,460.76822890000767,,,,,,,,,460.7617728000041,460.76822890000767,460.76822890000767,0.021224700001766905,460.95672630000627,460.95672630000627,,,461.4263692999957,z,1,4.547711046102047,461.42729980000877,461.4397688000172,466.00841420001234,465.97463330000755,0.6513577000005171,None,,,Shuai,001,2025-03-10_20h46.54.639,pleaseworkstroopcontrol,2024.2.4,60.0295585560789,2025-03-10 20h47.14.762314 -0700,
test,inconsistent,2,yellow,green,word,z,800,2000,101,42,1,z,1,0.6756205999990925,None,1,42,101,1,466.00841420001234,,,,,,,,,466.0021581000183,466.00841420001234,466.00841420001234,0.027425500011304393,466.19012539999676,466.19012539999676,,,466.69232669999474,z,1,2.4275567977098804,466.6930180999916,466.7069986000133,469.18187649999163,469.10796580000897,0.6756205999990925,None,,,Shuai,001,2025-03-10_20h46.54.639,pleaseworkstroopcontrol,2024.2.4,60.0295585560789,2025-03-10 20h47.14.762314 -0700,
test,inconsistent,59,yellow,green,word,z,800,2000,102,43,1,z,1,0.6605829000181984,None,1,43,102,58,469.18187649999163,,,,,,,,,469.17685540000093,469.18187649999163,469.18187649999163,0.0690586999990046,469.32371830000193,469.32371830000193,,,469.8590663000068,z,1,3.249524238625824,469.8596913999936,469.8737617000006,473.13626070000464,473.1092725000053,0.6605829000181984,None,,,Shuai,001,2025-03-10_20h46.54.639,pleaseworkstroopcontrol,2024.2.4,60.0295585560789,2025-03-10 20h47.14.762314 -0700,
test,inconsistent,15,yellow,red,word,z,800,2000,103,44,1,z,1,1.0805314000172075,None,1,44,103,14,473.13626070000464,,,,,,,,,473.1307240000169,473.13626070000464,473.13626070000464,0.021474000008311123,473.32445280000684,473.32445280000684,,,474.2266796999902,z,1,1.571026907889423,474.2273933000106,474.24142700000084,475.84940330000245,475.79249769999296,1.0805314000172075,None,,,Shuai,001,2025-03-10_20h46.54.639,pleaseworkstroopcontrol,2024.2.4,60.0295585560789,2025-03-10 20h47.14.762314 -0700,
test,consistent,43,green,green,word,m,800,2000,104,45,1,m,1,0.8279215000220574,None,1,45,104,42,475.84940330000245,,,,,,,,,475.84455939999316,475.84940330000245,475.84940330000245,0.0519823000067845,476.00813370000105,476.00813370000105,,,476.69326349999756,m,1,4.200342049146899,476.69391729999916,476.70823499999824,480.9209298999922,480.8927443000139,0.8279215000220574,None,,,Shuai,001,2025-03-10_20h46.54.639,pleaseworkstroopcontrol,2024.2.4,60.0295585560789,2025-03-10 20h47.14.762314 -0700,
test,inconsistent,24,blue,green,word,z,800,2000,105,46,1,z,1,0.7451875999977347,None,1,46,105,23,480.9209298999922,,,,,,,,,480.9151060000004,480.9209298999922,480.9209298999922,0.022273900016443804,481.10885399999097,481.10885399999097,,,481.6778331999958,z,1,2.518436660505605,481.67848530001356,481.69176270000753,484.2183578000113,484.1931617000082,0.7451875999977347,None,,,Shuai,001,2025-03-10_20h46.54.639,pleaseworkstroopcontrol,2024.2.4,60.0295585560789,2025-03-10 20h47.14.762314 -0700,
test,consistent,36,red,red,word,m,800,2000,106,47,1,m,1,0.8162733999779448,None,1,47,106,35,484.2183578000113,,,,,,,,,484.21260440000333,484.2183578000113,484.2183578000113,0.019462700001895428,484.4089456000074,484.4089456000074,,,485.044267099991,m,1,1.4629380311725872,485.04495229999884,485.0590707999945,486.5358119000157,486.49332370000775,0.8162733999779448,None,,,Shuai,001,2025-03-10_20h46.54.639,pleaseworkstroopcontrol,2024.2.4,60.0295585560789,2025-03-10 20h47.14.762314 -0700,
test,consistent,12,yellow,yellow,word,m,800,2000,107,48,1,m,1,0.848792799981311,None,1,48,107,11,486.5358119000157,,,,,,,,,486.5289296999981,486.5358119000157,486.5358119000157,0.03557170002022758,486.70912240000325,486.70912240000325,,,487.3946058000147,m,1,5.850747422669066,487.39524990000064,487.40959470000234,493.2667592999933,493.2440534000052,0.848792799981311,None,,,Shuai,001,2025-03-10_20h46.54.639,pleaseworkstroopcontrol,2024.2.4,60.0295585560789,2025-03-10 20h47.14.762314 -0700,
test,inconsistent,17,yellow,green,word,z,800,2000,108,49,1,z,1,0.7164351000101306,None,1,49,108,16,493.2667592999933,,,,,,,,,493.2603691999975,493.2667592999933,493.2667592999933,0.01652130001457408,493.4601028000179,493.4601028000179,,,493.99557639998966,z,1,5.175061998853416,493.99621340000886,494.0098500000022,499.2044698999962,499.1616636000108,0.7164351000101306,None,,,Shuai,001,2025-03-10_20h46.54.639,pleaseworkstroopcontrol,2024.2.4,60.0295585560789,2025-03-10 20h47.14.762314 -0700,
test,inconsistent,25,red,blue,word,z,800,2000,109,50,1,z,1,1.12027010001475,None,1,50,109,24,499.2044698999962,,,,,,,,,499.1985602999921,499.2044698999962,499.2044698999962,0.03689020001911558,499.3777585999924,499.3777585999924,,,500.32922320000944,z,1,1.7327324024371014,500.32990899999277,500.34376980000525,502.09548310001264,502.06172450000304,1.12027010001475,None,,,Shuai,001,2025-03-10_20h46.54.639,pleaseworkstroopcontrol,2024.2.4,60.0295585560789,2025-03-10 20h47.14.762314 -0700,
test,inconsistent,48,yellow,red,word,z,800,2000,110,51,1,z,1,0.9616537000110839,None,1,51,110,47,502.09548310001264,,,,,,,,,502.0879998000164,502.09548310001264,502.09548310001264,0.026267900015227497,502.277788700012,502.277788700012,,,503.06303849999676,z,1,3.1664937319689512,503.0636807999981,503.07767500000773,506.25766699999804,506.2288924000168,0.9616537000110839,None,,,Shuai,001,2025-03-10_20h46.54.639,pleaseworkstroopcontrol,2024.2.4,60.0295585560789,2025-03-10 20h47.14.762314 -0700,
test,consistent,23,green,green,word,m,800,2000,111,52,1,m,1,0.786283800000092,None,1,52,111,22,506.25766699999804,,,,,,,,,506.25108650000766,506.25766699999804,506.25766699999804,0.022173400007886812,506.4443453999993,506.4443453999993,,,507.0468205999932,m,1,1.4925945943034877,507.04751989999204,507.0611528000154,508.555849700002,508.52927790000103,0.786283800000092,None,,,Shuai,001,2025-03-10_20h46.54.639,pleaseworkstroopcontrol,2024.2.4,60.0295585560789,2025-03-10 20h47.14.762314 -0700,
test,consistent,41,green,green,word,m,800,2000,112,53,1,m,1,0.6343510999868158,None,1,53,112,40,508.555849700002,,,,,,,,,508.55045640000026,508.555849700002,508.555849700002,0.02096319998963736,508.7445667000138,508.7445667000138,,,509.1967714999919,m,1,4.006891261015088,509.19744889999856,509.2114106999943,513.2217588000058,513.1961329999904,0.6343510999868158,None,,,Shuai,001,2025-03-10_20h46.54.639,pleaseworkstroopcontrol,2024.2.4,60.0295585560789,2025-03-10 20h47.14.762314 -0700,
test,inconsistent,16,red,green,word,z,800,2000,113,54,1,z,1,0.8882168999989517,None,1,54,113,15,513.2217588000058,,,,,,,,,513.2151470000099,513.2217588000058,513.2217588000058,0.019136099988827482,513.4118032999977,513.4118032999977,,,514.1139991999953,z,1,3.364466122177685,514.1147575000068,514.12862209999,517.4899929999956,517.4634050000168,0.8882168999989517,None,,,Shuai,001,2025-03-10_20h46.54.639,pleaseworkstroopcontrol,2024.2.4,60.0295585560789,2025-03-10 20h47.14.762314 -0700,
test,inconsistent,44,green,red,word,z,800,2000,114,55,1,z,1,0.7289713000063784,None,1,55,114,43,517.4899929999956,,,,,,,,,517.4830691000097,517.4899929999956,517.4899929999956,0.019866499991621822,517.6791232000105,517.6791232000105,,,518.2300300000061,z,1,1.5839212867835553,518.2305506000121,518.2452664000157,519.8358705000137,519.8136769999983,0.7289713000063784,None,,,Shuai,001,2025-03-10_20h46.54.639,pleaseworkstroopcontrol,2024.2.4,60.0295585560789,2025-03-10 20h47.14.762314 -0700,
test,inconsistent,29,green,blue,word,z,800,2000,115,56,1,z,1,1.1346563000115566,None,1,56,115,28,519.8358705000137,,,,,,,,,519.8292342000059,519.8358705000137,519.8358705000137,0.01571849998435937,520.0291631,520.0291631,,,520.9819519000011,z,1,3.433759372542278,520.9826283000002,520.9956905000145,524.4499665999901,524.4138266000082,1.1346563000115566,None,,,Shuai,001,2025-03-10_20h46.54.639,pleaseworkstroopcontrol,2024.2.4,60.0295585560789,2025-03-10 20h47.14.762314 -0700,
test,inconsistent,14,yellow,blue,word,z,800,2000,116,57,1,z,1,0.8309755999944173,None,1,57,116,13,524.4499665999901,,,,,,,,,524.4439663999947,524.4499665999901,524.4499665999901,0.03003970001009293,524.6296647000127,524.6296647000127,,,525.2983128000051,z,1,4.187926853048737,525.2989774000016,525.3130995999963,529.5059318999993,529.4811293999956,0.8309755999944173,None,,,Shuai,001,2025-03-10_20h46.54.639,pleaseworkstroopcontrol,2024.2.4,60.0295585560789,2025-03-10 20h47.14.762314 -0700,
test,consistent,40,yellow,yellow,word,m,800,2000,117,58,1,m,1,1.0989219000039157,None,1,58,117,39,529.5059318999993,,,,,,,,,529.5003781999985,529.5059318999993,529.5059318999993,0.01924759999383241,529.6968839000037,529.6968839000037,,,530.6159232000064,m,1,2.8524505268986022,530.6166834000032,530.6303940000071,533.4958363999904,533.4649349999963,1.0989219000039157,None,,,Shuai,001,2025-03-10_20h46.54.639,pleaseworkstroopcontrol,2024.2.4,60.0295585560789,2025-03-10 20h47.14.762314 -0700,
test,inconsistent,26,green,yellow,word,z,800,2000,118,0,2,z,1,0.6885584999981802,None,2,0,118,25,533.4958363999904,,,,,,,,,533.4886991000094,533.4958363999904,533.4958363999904,0.024010300025111064,533.6807749000145,533.6807749000145,,,534.1992329999921,z,1,3.338650962962986,534.1998764000018,534.2140964000137,537.5608495000051,537.5319085000083,0.6885584999981802,None,,,Shuai,001,2025-03-10_20h46.54.639,pleaseworkstroopcontrol,2024.2.4,60.0295585560789,2025-03-10 20h47.14.762314 -0700,
test,consistent,47,blue,blue,word,m,800,2000,119,1,2,m,1,0.9010899999993853,None,2,1,119,46,537.5608495000051,,,,,,,,,537.5535164000175,537.5608495000051,537.5608495000051,0.021382100007031113,537.7475083000027,537.7475083000027,,,538.4659635999997,m,1,4.850337294214589,538.4668241000036,538.4811485999962,543.3472660999978,543.3162108999968,0.9010899999993853,None,,,Shuai,001,2025-03-10_20h46.54.639,pleaseworkstroopcontrol,2024.2.4,60.0295585560789,2025-03-10 20h47.14.762314 -0700,
test,consistent,43,green,green,word,m,800,2000,120,2,2,m,1,0.7804930999991484,None,2,2,120,42,543.3472660999978,,,,,,,,,543.3409195000131,543.3472660999978,543.3472660999978,0.02479769999627024,543.5317012000014,543.5317012000014,,,544.1337185000011,m,1,3.7255334504651896,544.1343928000133,544.1479480999988,547.8804062000127,547.8492355000053,0.7804930999991484,None,,,Shuai,001,2025-03-10_20h46.54.639,pleaseworkstroopcontrol,2024.2.4,60.0295585560789,2025-03-10 20h47.14.762314 -0700,
test,consistent,45,red,red,word,m,800,2000,121,3,2,m,1,0.657357599993702,None,2,3,121,44,547.8804062000127,,,,,,,,,547.8740134999971,547.8804062000127,547.8804062000127,0.02469520000158809,548.0653048999957,548.0653048999957,,,548.5505825,m,1,4.5537133397669765,548.5512800000142,548.5654671000084,553.1296281999967,553.1001018999959,0.657357599993702,None,,,Shuai,001,2025-03-10_20h46.54.639,pleaseworkstroopcontrol,2024.2.4,60.0295585560789,2025-03-10 20h47.14.762314 -0700,
test,consistent,49,yellow,yellow,word,m,800,2000,122,4,2,m,1,0.6461739000224043,None,2,4,122,48,553.1296281999967,,,,,,,,,553.1228678000043,553.1296281999967,553.1296281999967,0.022854100010590628,553.3158456000092,553.3158456000092,,,553.7841078999918,m,1,1.0908907415206768,553.7848719000176,553.7988256000099,554.9166018000105,554.8671753999952,0.6461739000224043,None,,,Shuai,001,2025-03-10_20h46.54.639,pleaseworkstroopcontrol,2024.2.4,60.0295585560789,2025-03-10 20h47.14.762314 -0700,
test,consistent,54,green,green,word,m,800,2000,123,5,2,m,1,0.6843530000187457,None,2,5,123,53,554.9166018000105,,,,,,,,,554.910142400011,554.9166018000105,554.9166018000105,0.04277830000501126,555.0824641000072,555.0824641000072,,,555.6180537000182,m,1,2.112690848582976,555.6187089000014,555.6328918999934,557.745685700007,557.7173309999926,0.6843530000187457,None,,,Shuai,001,2025-03-10_20h46.54.639,pleaseworkstroopcontrol,2024.2.4,60.0295585560789,2025-03-10 20h47.14.762314 -0700,
test,inconsistent,14,yellow,blue,word,z,800,2000,124,6,2,z,1,0.7794839999987744,None,2,6,124,13,557.745685700007,,,,,,,,,557.7390654000046,557.745685700007,557.745685700007,0.021758399991085753,557.93308290001,557.93308290001,,,558.5352010999923,z,1,5.352095004545509,558.5359300000127,558.5496480000147,563.9030165000004,563.8841992999951,0.7794839999987744,None,,,Shuai,001,2025-03-10_20h46.54.639,pleaseworkstroopcontrol,2024.2.4,60.0295585560789,2025-03-10 20h47.14.762314 -0700,
test,consistent,7,green,green,word,m,800,2000,125,7,2,m,1,0.7070460999966599,None,2,7,125,6,563.9030165000004,,,,,,,,,563.8977625000116,563.9030165000004,563.9030165000004,0.013885899999877438,564.083646300016,564.083646300016,,,564.6189727000019,m,1,2.209217277577106,564.6196360999893,564.633579300018,566.8452252999996,566.8183616000169,0.7070460999966599,None,,,Shuai,001,2025-03-10_20h46.54.639,pleaseworkstroopcontrol,2024.2.4,60.0295585560789,2025-03-10 20h47.14.762314 -0700,
test,inconsistent,22,red,yellow,word,z,800,2000,126,8,2,z,1,1.1842753000091761,None,2,8,126,21,566.8452252999996,,,,,,,,,566.8394669000118,566.8452252999996,566.8452252999996,0.021122700010892004,567.033861200005,567.033861200005,,,568.0363511000178,z,1,5.599733336139927,568.0370429000177,568.0504654000106,573.6610167000035,573.6351543999917,1.1842753000091761,None,,,Shuai,001,2025-03-10_20h46.54.639,pleaseworkstroopcontrol,2024.2.4,60.0295585560789,2025-03-10 20h47.14.762314 -0700,
test,inconsistent,17,yellow,green,word,z,800,2000,127,9,2,z,1,0.8657316000026185,None,2,9,127,16,573.6610167000035,,,,,,,,,573.6552777000179,573.6610167000035,573.6610167000035,0.019805299991276115,573.8510910999903,573.8510910999903,,,574.5369032000017,z,1,4.069685199057158,574.537679800007,574.5512466999935,578.6267892000033,578.6028416999907,0.8657316000026185,None,,,Shuai,001,2025-03-10_20h46.54.639,pleaseworkstroopcontrol,2024.2.4,60.0295585560789,2025-03-10 20h47.14.762314 -0700,
test,inconsistent,15,yellow,red,word,z,800,2000,128,10,2,z,1,0.5971427999902517,None,2,10,128,14,578.6267892000033,,,,,,,,,578.6210043000174,578.6267892000033,578.6267892000033,0.018224500003270805,578.8178717000119,578.8178717000119,,,579.2372512000147,z,1,4.777126891285157,579.2381544999953,579.2518058000132,584.0318308999995,584.0032872000011,0.5971427999902517,None,,,Shuai,001,2025-03-10_20h46.54.639,pleaseworkstroopcontrol,2024.2.4,60.0295585560789,2025-03-10 20h47.14.762314 -0700,
test,inconsistent,56,green,red,word,z,800,2000,129,11,2,z,1,0.5882616000017151,None,2,11,129,55,584.0318308999995,,,,,,,,,584.0239787000173,584.0318308999995,584.0318308999995,0.021285700000589713,584.2189351000125,584.2189351000125,,,584.6374951000034,z,1,3.8672202542515164,584.6381492000073,584.6524171000056,588.5296280999901,588.5036045000015,0.5882616000017151,None,,,Shuai,001,2025-03-10_20h46.54.639,pleaseworkstroopcontrol,2024.2.4,60.0295585560789,2025-03-10 20h47.14.762314 -0700,
test,consistent,18,red,red,word,m,800,2000,130,12,2,m,1,0.7563711999973748,None,2,12,130,17,588.5296280999901,,,,,,,,,588.5229442999989,588.5296280999901,588.5296280999901,0.01963590001105331,588.7191159999929,588.7191159999929,,,589.2888852000178,m,1,5.766392189846324,589.2896286000032,589.3028544000117,595.0835937999946,595.0545128000085,0.7563711999973748,None,,,Shuai,001,2025-03-10_20h46.54.639,pleaseworkstroopcontrol,2024.2.4,60.0295585560789,2025-03-10 20h47.14.762314 -0700,
test,inconsistent,2,yellow,green,word,z,800,2000,131,13,2,z,1,0.6548229999898467,None,2,13,131,1,595.0835937999946,,,,,,,,,595.0772337999952,595.0835937999946,595.0835937999946,0.02283279999392107,595.2697087000124,595.2697087000124,,,595.7553505999967,z,1,5.385517913443195,595.7560019000084,595.769715500006,601.1682100000035,601.1385676999926,0.6548229999898467,None,,,Shuai,001,2025-03-10_20h46.54.639,pleaseworkstroopcontrol,2024.2.4,60.0295585560789,2025-03-10 20h47.14.762314 -0700,
test,inconsistent,55,green,yellow,word,z,800,2000,132,14,2,z,1,1.0756632000266109,None,2,14,132,54,601.1682100000035,,,,,,,,,601.162588200008,601.1682100000035,601.1682100000035,0.024237899982836097,601.3539781,601.3539781,,,602.2547396000009,z,1,2.675786669368033,602.2551863999979,602.2702450999932,604.9517899999919,604.9218245999946,1.0756632000266109,None,,,Shuai,001,2025-03-10_20h46.54.639,pleaseworkstroopcontrol,2024.2.4,60.0295585560789,2025-03-10 20h47.14.762314 -0700,
test,inconsistent,27,green,red,word,z,800,2000,133,15,2,z,1,0.7237788999918848,None,2,15,133,26,604.9517899999919,,,,,,,,,604.945653200004,604.9517899999919,604.9517899999919,0.023984999977983534,605.1375854999933,605.1375854999933,,,605.6895052999898,z,1,4.107304524617572,605.6901839000056,605.7043231000134,609.8157321000181,609.7892825000163,0.7237788999918848,None,,,Shuai,001,2025-03-10_20h46.54.639,pleaseworkstroopcontrol,2024.2.4,60.0295585560789,2025-03-10 20h47.14.762314 -0700,
test,inconsistent,44,green,red,word,z,800,2000,134,16,2,z,1,0.8864793999819085,None,2,16,134,43,609.8157321000181,,,,,,,,,609.8098795000114,609.8157321000181,609.8157321000181,0.020635199995012954,610.0048620000016,610.0048620000016,,,610.7082704000059,z,1,5.072875120237739,610.7090103999944,610.7212129000109,615.7986528000038,615.772766900016,0.8864793999819085,None,,,Shuai,001,2025-03-10_20h46.54.639,pleaseworkstroopcontrol,2024.2.4,60.0295585560789,2025-03-10 20h47.14.762314 -0700,
test,consistent,36,red,red,word,m,800,2000,135,17,2,m,1,0.8190227000159211,None,2,17,135,35,615.7986528000038,,,,,,,,,615.7917191000015,615.7986528000038,615.7986528000038,0.019120599987218156,615.9887273999921,615.9887273999921,,,616.6240590999951,m,1,5.601758277431563,616.6247693999903,616.6387335000036,622.2510245000012,622.2233292000019,0.8190227000159211,None,,,Shuai,001,2025-03-10_20h46.54.639,pleaseworkstroopcontrol,2024.2.4,60.0295585560789,2025-03-10 20h47.14.762314 -0700,
test,inconsistent,3,blue,red,word,z,800,2000,136,18,2,z,1,0.6182014000078198,None,2,18,136,2,622.2510245000012,,,,,,,,,622.2433847000066,622.2510245000012,622.2510245000012,0.020210999995470047,622.4392763999931,622.4392763999931,,,622.8745686000038,z,1,4.328969432905813,622.8753566000087,622.8893690000114,627.2158396000159,627.1908852999914,0.6182014000078198,None,,,Shuai,001,2025-03-10_20h46.54.639,pleaseworkstroopcontrol,2024.2.4,60.0295585560789,2025-03-10 20h47.14.762314 -0700,
test,inconsistent,30,blue,red,word,z,800,2000,137,19,2,z,1,0.6398148000007495,None,2,19,137,29,627.2158396000159,,,,,,,,,627.2109823999926,627.2158396000159,627.2158396000159,0.01994849997572601,627.4065626999945,627.4065626999945,,,627.8587957000127,z,1,1.7453810053112235,627.8594408000063,627.8729626999993,629.6170243000088,629.5909123000165,0.6398148000007495,None,,,Shuai,001,2025-03-10_20h46.54.639,pleaseworkstroopcontrol,2024.2.4,60.0295585560789,2025-03-10 20h47.14.762314 -0700,
test,inconsistent,52,red,green,word,z,800,2000,138,20,2,z,1,0.6631901999935508,None,2,20,138,51,629.6170243000088,,,,,,,,,629.6113775999984,629.6170243000088,629.6170243000088,0.020576000009896234,629.8072045000154,629.8072045000154,,,630.2922923000006,z,1,2.502552633515479,630.2929966000083,630.3066033000068,632.8191396000038,632.7914320999989,0.6631901999935508,None,,,Shuai,001,2025-03-10_20h46.54.639,pleaseworkstroopcontrol,2024.2.4,60.0295585560789,2025-03-10 20h47.14.762314 -0700,
test,inconsistent,16,red,green,word,z,800,2000,139,21,2,z,1,0.6415197000023909,None,2,21,139,15,632.8191396000038,,,,,,,,,632.8121251999983,632.8191396000038,632.8191396000038,0.020862800010945648,633.0068087000109,633.0068087000109,,,633.4758740999969,z,1,1.2411536154759153,633.4765528000135,633.4903220999986,634.7335189000005,634.7082726999943,0.6415197000023909,None,,,Shuai,001,2025-03-10_20h46.54.639,pleaseworkstroopcontrol,2024.2.4,60.0295585560789,2025-03-10 20h47.14.762314 -0700,
test,inconsistent,9,red,blue,word,z,800,2000,140,22,2,z,1,0.5657842000073288,None,2,22,140,8,634.7335189000005,,,,,,,,,634.7281318000169,634.7335189000005,634.7335189000005,0.019814300001598895,634.9238331000088,634.9238331000088,,,635.3092920999916,z,1,3.5660047355736673,635.309971700015,635.3236939999915,638.9033563999983,638.8751151000033,0.5657842000073288,None,,,Shuai,001,2025-03-10_20h46.54.639,pleaseworkstroopcontrol,2024.2.4,60.0295585560789,2025-03-10 20h47.14.762314 -0700,
test,consistent,41,green,green,word,m,800,2000,141,23,2,m,1,0.8470910000032745,None,2,23,141,40,638.9033563999983,,,,,,,,,638.8973033000075,638.9033563999983,638.9033563999983,0.022085900011006743,639.0906977000122,639.0906977000122,,,639.7597823000106,m,1,4.964362675234469,639.7604277000064,639.7742232000164,644.7385214999958,644.7090349000064,0.8470910000032745,None,,,Shuai,001,2025-03-10_20h46.54.639,pleaseworkstroopcontrol,2024.2.4,60.0295585560789,2025-03-10 20h47.14.762314 -0700,
test,inconsistent,5,orange,blue,word,z,800,2000,142,24,2,z,1,0.6008000999863725,None,2,24,142,4,644.7385214999958,,,,,,,,,644.7318253999983,644.7385214999958,644.7385214999958,0.022812999988673255,644.9247026999947,644.9247026999947,,,645.3435344000172,z,1,1.2179059293086012,645.344282200007,645.3584393000056,646.583381000004,646.5594834999938,0.6008000999863725,None,,,Shuai,001,2025-03-10_20h46.54.639,pleaseworkstroopcontrol,2024.2.4,60.0295585560789,2025-03-10 20h47.14.762314 -0700,
test,consistent,35,red,red,word,m,800,2000,143,25,2,m,1,0.7457491000241134,None,2,25,143,34,646.583381000004,,,,,,,,,646.5781352999911,646.583381000004,646.583381000004,0.01890359999379143,646.774858299992,646.774858299992,,,647.3438973000157,m,1,5.665040228918867,647.3448875000176,647.3582144000102,653.0249051999999,652.9934328999952,0.7457491000241134,None,,,Shuai,001,2025-03-10_20h46.54.639,pleaseworkstroopcontrol,2024.2.4,60.0295585560789,2025-03-10 20h47.14.762314 -0700,
test,consistent,57,yellow,yellow,word,m,800,2000,144,26,2,m,1,0.752617599995574,None,2,26,144,56,653.0249051999999,,,,,,,,,653.0176705000049,653.0249051999999,653.0249051999999,0.02426289999857545,653.2090463000059,653.2090463000059,,,653.7945997999923,m,1,1.8704039135075703,653.7952619999996,653.8089502000075,655.6845907999959,655.660200400016,0.752617599995574,None,,,Shuai,001,2025-03-10_20h46.54.639,pleaseworkstroopcontrol,2024.2.4,60.0295585560789,2025-03-10 20h47.14.762314 -0700,
test,inconsistent,50,yellow,green,word,z,800,2000,145,27,2,z,1,1.0119753999751993,None,2,27,145,49,655.6845907999959,,,,,,,,,655.6786423000158,655.6845907999959,655.6845907999959,0.018501799990190193,655.8759338000091,655.8759338000091,,,656.7112766999926,z,1,3.2418376046018467,656.7119772000005,656.7259076999908,659.9721174000006,659.9440957999905,1.0119753999751993,None,,,Shuai,001,2025-03-10_20h46.54.639,pleaseworkstroopcontrol,2024.2.4,60.0295585560789,2025-03-10 20h47.14.762314 -0700,
test,inconsistent,24,blue,green,word,z,800,2000,146,28,2,z,1,0.6638354000169784,None,2,28,146,23,659.9721174000006,,,,,,,,,659.9657074999996,659.9721174000006,659.9721174000006,0.021680700010620058,660.1598783000081,660.1598783000081,,,660.6452963000047,z,1,5.070152654577885,660.6459801000019,660.6598213000107,665.7412118999928,665.7116487000021,0.6638354000169784,None,,,Shuai,001,2025-03-10_20h46.54.639,pleaseworkstroopcontrol,2024.2.4,60.0295585560789,2025-03-10 20h47.14.762314 -0700,
test,consistent,46,yellow,yellow,word,m,800,2000,147,29,2,m,1,0.7299465000105556,None,2,29,147,45,665.7412118999928,,,,,,,,,665.7340564999904,665.7412118999928,665.7412118999928,0.02227730001322925,665.9266365999938,665.9266365999938,,,666.4792447999935,m,1,5.364025302844557,666.4799415000016,666.4938647999952,671.8575739999942,671.8287251000002,0.7299465000105556,None,,,Shuai,001,2025-03-10_20h46.54.639,pleaseworkstroopcontrol,2024.2.4,60.0295585560789,2025-03-10 20h47.14.762314 -0700,
test,consistent,51,red,red,word,m,800,2000,148,30,2,m,1,0.6686967000132427,None,2,30,148,50,671.8575739999942,,,,,,,,,671.8512610000034,671.8575739999942,671.8575739999942,0.022710299992468208,672.0441738000081,672.0441738000081,,,672.529113800003,m,1,4.352214708400337,672.5299289000104,672.544140700018,676.9131916000042,676.8789948000049,0.6686967000132427,None,,,Shuai,001,2025-03-10_20h46.54.639,pleaseworkstroopcontrol,2024.2.4,60.0295585560789,2025-03-10 20h47.14.762314 -0700,
test,consistent,34,green,green,word,m,800,2000,149,31,2,m,1,0.7113894000067376,None,2,31,149,33,676.9131916000042,,,,,,,,,676.9066642000107,676.9131916000042,676.9131916000042,0.027773500012699515,677.0948298000148,677.0948298000148,,,677.6300437000173,m,1,2.76176122638589,677.6307415000047,677.6446858000127,680.4058190000069,680.3793465000053,0.7113894000067376,None,,,Shuai,001,2025-03-10_20h46.54.639,pleaseworkstroopcontrol,2024.2.4,60.0295585560789,2025-03-10 20h47.14.762314 -0700,
test,inconsistent,10,green,yellow,word,z,800,2000,150,32,2,z,1,0.6883126999891829,None,2,32,150,9,680.4058190000069,,,,,,,,,680.4000341999927,680.4058190000069,680.4058190000069,0.020700000022770837,680.595007099997,680.595007099997,,,681.0972077999904,z,1,3.8116815783349747,681.0978962999943,681.1117430000158,684.927125599992,684.8964864000154,0.6883126999891829,None,,,Shuai,001,2025-03-10_20h46.54.639,pleaseworkstroopcontrol,2024.2.4,60.0295585560789,2025-03-10 20h47.14.762314 -0700,
test,consistent,12,yellow,yellow,word,m,800,2000,151,33,2,m,1,0.6751129000040237,None,2,33,151,11,684.927125599992,,,,,,,,,684.9200193000142,684.927125599992,684.927125599992,0.023424699989845976,685.1121357000084,685.1121357000084,,,685.6142095999967,m,1,2.7943747635317777,685.6148964000167,685.6284483000054,688.4236657000147,688.396925500012,0.6751129000040237,None,,,Shuai,001,2025-03-10_20h46.54.639,pleaseworkstroopcontrol,2024.2.4,60.0295585560789,2025-03-10 20h47.14.762314 -0700,
test,consistent,1,red,red,word,m,800,2000,152,34,2,m,1,0.8124979000131134,None,2,34,152,0,688.4236657000147,,,,,,,,,688.4175404999987,688.4236657000147,688.4236657000147,0.020637000008719042,688.6125075000164,688.6125075000164,,,689.2481354000047,m,1,5.208355864900669,689.2488764000009,689.2623777000117,694.4755473000114,694.4474816000147,0.8124979000131134,None,,,Shuai,001,2025-03-10_20h46.54.639,pleaseworkstroopcontrol,2024.2.4,60.0295585560789,2025-03-10 20h47.14.762314 -0700,
test,consistent,28,yellow,yellow,word,m,800,2000,153,35,2,m,1,0.6602697999915108,None,2,35,153,27,694.4755473000114,,,,,,,,,694.4689036000054,694.4755473000114,694.4755473000114,0.021531200007302687,694.6633079000167,694.6633079000167,,,695.1485954000091,m,1,3.0052499972650835,695.1492786000017,695.1631759000011,698.1809214999957,698.1481291000091,0.6602697999915108,None,,,Shuai,001,2025-03-10_20h46.54.639,pleaseworkstroopcontrol,2024.2.4,60.0295585560789,2025-03-10 20h47.14.762314 -0700,
test,consistent,23,green,green,word,m,800,2000,154,36,2,m,1,0.6829704999981914,None,2,36,154,22,698.1809214999957,,,,,,,,,698.173603400006,698.1809214999957,698.1809214999957,0.025625600013881922,698.3634336999967,698.3634336999967,,,698.8663937000092,m,1,4.810217528160992,698.8672403999954,698.8800137999933,703.6926454000059,703.665172900015,0.6829704999981914,None,,,Shuai,001,2025-03-10_20h46.54.639,pleaseworkstroopcontrol,2024.2.4,60.0295585560789,2025-03-10 20h47.14.762314 -0700,
test,inconsistent,21,black,yellow,word,z,800,2000,155,37,2,z,1,0.7019465000194032,None,2,37,155,20,703.6926454000059,,,,,,,,,703.6871458000096,703.6926454000059,703.6926454000059,0.022150599979795516,703.8804489000177,703.8804489000177,,,704.3997461000108,z,1,4.996528554860986,704.4004424000159,704.4140258000116,709.413429600012,709.3821526000102,0.7019465000194032,None,,,Shuai,001,2025-03-10_20h46.54.639,pleaseworkstroopcontrol,2024.2.4,60.0295585560789,2025-03-10 20h47.14.762314 -0700,
test,inconsistent,58,yellow,red,word,z,800,2000,156,38,2,z,1,0.709851499996148,None,2,38,156,57,709.413429600012,,,,,,,,,709.40556069999,709.413429600012,709.413429600012,0.023476399976061657,709.5978169000009,709.5978169000009,,,710.1330491999979,z,1,1.2556752285106512,710.1337812000129,710.147815400007,711.415081300016,711.3824069999973,0.709851499996148,None,,,Shuai,001,2025-03-10_20h46.54.639,pleaseworkstroopcontrol,2024.2.4,60.0295585560789,2025-03-10 20h47.14.762314 -0700,
test,inconsistent,11,green,red,word,z,800,2000,157,39,2,z,1,0.610790700011421,None,2,39,157,10,711.415081300016,,,,,,,,,711.408485699998,711.415081300016,711.415081300016,0.02623170000151731,711.5979533999925,711.5979533999925,,,712.0334146000096,z,1,2.2629654149207488,712.0340940000024,712.0483686999942,714.3155479000125,714.2825663000112,0.610790700011421,None,,,Shuai,001,2025-03-10_20h46.54.639,pleaseworkstroopcontrol,2024.2.4,60.0295585560789,2025-03-10 20h47.14.762314 -0700,
test,inconsistent,32,orange,green,word,z,800,2000,158,40,2,z,1,0.5930284000060055,None,2,40,158,31,714.3155479000125,,,,,,,,,714.3090269000095,714.3155479000125,714.3155479000125,0.02630450000287965,714.4986608000181,714.4986608000181,,,714.9171721000166,z,1,5.045726812202147,714.9179006000049,714.9315153000061,719.9776484000031,719.9497833999922,0.5930284000060055,None,,,Shuai,001,2025-03-10_20h46.54.639,pleaseworkstroopcontrol,2024.2.4,60.0295585560789,2025-03-10 20h47.14.762314 -0700,
test,inconsistent,6,red,yellow,word,z,800,2000,159,41,2,z,1,0.8812988999998197,None,2,41,159,5,719.9776484000031,,,,,,,,,719.971971299994,719.9776484000031,719.9776484000031,0.022260500001721084,720.1657271000149,720.1657271000149,,,720.8677222999977,z,1,4.945998360147538,720.8685660999909,720.882064800011,725.8475538000057,725.8005001000129,0.8812988999998197,None,,,Shuai,001,2025-03-10_20h46.54.639,pleaseworkstroopcontrol,2024.2.4,60.0295585560789,2025-03-10 20h47.14.762314 -0700,
test,inconsistent,19,green,red,word,z,800,2000,160,42,2,z,1,0.6635245000070427,None,2,42,160,18,725.8475538000057,,,,,,,,,725.8410011999949,725.8475538000057,725.8475538000057,0.04041339998366311,726.0161728000094,726.0161728000094,,,726.5183596000134,z,1,1.4225693930599261,726.5190447999921,726.5326329999953,727.9608216999914,727.9339240000118,0.6635245000070427,None,,,Shuai,001,2025-03-10_20h46.54.639,pleaseworkstroopcontrol,2024.2.4,60.0295585560789,2025-03-10 20h47.14.762314 -0700,
test,inconsistent,53,red,yellow,word,z,800,2000,161,43,2,z,1,0.8807813000166789,None,2,43,161,52,727.9608216999914,,,,,,,,,727.9541264,727.9608216999914,727.9608216999914,0.0202106999931857,728.149877000018,728.149877000018,,,728.8520218000049,z,1,5.20357313244063,728.8527168,728.8662527000124,734.1005299999961,734.0514516000112,0.8807813000166789,None,,,Shuai,001,2025-03-10_20h46.54.639,pleaseworkstroopcontrol,2024.2.4,60.0295585560789,2025-03-10 20h47.14.762314 -0700,
test,consistent,40,yellow,yellow,word,m,800,2000,162,44,2,m,1,1.3228830000152811,None,2,44,162,39,734.1005299999961,,,,,,,,,734.0938512000139,734.1005299999961,734.1005299999961,0.04220889997668564,734.2670899000077,734.2670899000077,,,735.4364130000176,m,1,2.404375269731813,735.4370913000021,735.4501669000019,737.8593654000142,737.8352973000146,1.3228830000152811,None,,,Shuai,001,2025-03-10_20h46.54.639,pleaseworkstroopcontrol,2024.2.4,60.0295585560789,2025-03-10 20h47.14.762314 -0700,
test,inconsistent,33,yellow,green,word,z,800,2000,163,45,2,z,1,0.6092486999987159,None,2,45,163,32,737.8593654000142,,,,,,,,,737.851634599996,737.8593654000142,737.8593654000142,0.016791600006399676,738.0503932000138,738.0503932000138,,,738.4860262000002,z,1,4.0715478037124395,738.4868851999927,738.5003537000157,742.5749089000165,742.5519053000025,0.6092486999987159,None,,,Shuai,001,2025-03-10_20h46.54.639,pleaseworkstroopcontrol,2024.2.4,60.0295585560789,2025-03-10 20h47.14.762314 -0700,
test,inconsistent,48,yellow,red,word,z,800,2000,164,46,2,z,1,0.953340100008063,None,2,46,164,47,742.5749089000165,,,,,,,,,742.5684398000012,742.5749089000165,742.5749089000165,0.016719299979740754,742.7680406,742.7680406,,,743.5365243999986,z,1,5.273090846640198,743.5373137000133,743.5510017999914,748.8757202000124,748.8018355999957,0.953340100008063,None,,,Shuai,001,2025-03-10_20h46.54.639,pleaseworkstroopcontrol,2024.2.4,60.0295585560789,2025-03-10 20h47.14.762314 -0700,
test,inconsistent,39,red,yellow,word,z,800,2000,165,47,2,z,1,0.6501466000045184,None,2,47,165,38,748.8757202000124,,,,,,,,,748.869403699995,748.8757202000124,748.8757202000124,0.0677741999970749,749.0017036999925,749.0017036999925,,,749.5371449000086,z,1,5.118014887306566,749.5379056000093,749.5519662000006,754.6838755999925,754.653588599991,0.6501466000045184,None,,,Shuai,001,2025-03-10_20h46.54.639,pleaseworkstroopcontrol,2024.2.4,60.0295585560789,2025-03-10 20h47.14.762314 -0700,
test,inconsistent,13,purple,red,word,z,800,2000,166,48,2,z,1,0.6454492000048049,None,2,48,166,12,754.6838755999925,,,,,,,,,754.6761894999945,754.6838755999925,754.6838755999925,0.022649000020464882,754.8688665000082,754.8688665000082,,,755.3380940000061,z,1,4.172922308933531,755.3388399000105,755.3523172000132,759.5291094999993,759.5039198000159,0.6454492000048049,None,,,Shuai,001,2025-03-10_20h46.54.639,pleaseworkstroopcontrol,2024.2.4,60.0295585560789,2025-03-10 20h47.14.762314 -0700,
test,inconsistent,4,red,green,word,z,800,2000,167,49,2,z,1,0.6092654000094626,None,2,49,167,3,759.5291094999993,,,,,,,,,759.523406399996,759.5291094999993,759.5291094999993,0.01940739998826757,759.7194312000065,759.7194312000065,,,760.1549618999998,z,1,1.331013293140494,760.1556405000156,760.169722199993,761.5006489999942,761.4708114000096,0.6092654000094626,None,,,Shuai,001,2025-03-10_20h46.54.639,pleaseworkstroopcontrol,2024.2.4,60.0295585560789,2025-03-10 20h47.14.762314 -0700,
test,inconsistent,59,yellow,green,word,z,800,2000,168,50,2,z,1,1.1287083000061102,None,2,50,168,58,761.5006489999942,,,,,,,,,761.4932270999998,761.5006489999942,761.5006489999942,0.0225073000183329,761.6863354000088,761.6863354000088,,,762.6385940999899,z,1,1.0953154896659352,762.639287500002,762.6532852000091,763.7486038999923,763.720936800004,1.1287083000061102,None,,,Shuai,001,2025-03-10_20h46.54.639,pleaseworkstroopcontrol,2024.2.4,60.0295585560789,2025-03-10 20h47.14.762314 -0700,
test,inconsistent,42,green,yellow,word,z,800,2000,169,51,2,z,1,0.8827827000059187,None,2,51,169,41,763.7486038999923,,,,,,,,,763.742392300017,763.7486038999923,763.7486038999923,0.02158989998861216,763.9364880000066,763.9364880000066,,,764.6383407000103,z,1,1.4802806487161526,764.6390362000093,764.6533465000102,766.130424300005,766.104487900011,0.8827827000059187,None,,,Shuai,001,2025-03-10_20h46.54.639,pleaseworkstroopcontrol,2024.2.4,60.0295585560789,2025-03-10 20h47.14.762314 -0700,
test,inconsistent,37,red,green,word,z,800,2000,170,52,2,z,1,0.5497259000258055,None,2,52,170,36,766.130424300005,,,,,,,,,766.1238775000093,766.130424300005,766.130424300005,0.019707600004039705,766.320042700012,766.320042700012,,,766.6891443000059,z,1,2.4355445314776363,766.6898100000108,766.703546100005,769.1786419000127,769.1207488999935,0.5497259000258055,None,,,Shuai,001,2025-03-10_20h46.54.639,pleaseworkstroopcontrol,2024.2.4,60.0295585560789,2025-03-10 20h47.14.762314 -0700,
test,inconsistent,31,yellow,red,word,z,800,2000,171,53,2,z,1,0.5570090999826789,None,2,53,171,30,769.1786419000127,,,,,,,,,769.1718607000075,769.1786419000127,769.1786419000127,0.05135090000112541,769.3369466000004,769.3369466000004,,,769.7381763000158,z,1,1.060524070156186,769.7390330999915,769.753229599999,770.8179879999952,770.7882643000048,0.5570090999826789,None,,,Shuai,001,2025-03-10_20h46.54.639,pleaseworkstroopcontrol,2024.2.4,60.0295585560789,2025-03-10 20h47.14.762314 -0700,
test,inconsistent,8,black,yellow,word,z,800,2000,172,54,2,z,1,0.6774753999779932,None,2,54,172,7,770.8179879999952,,,,,,,,,770.8117619999975,770.8179879999952,770.8179879999952,0.023398699995595962,771.0038546000142,771.0038546000142,,,771.5060996999964,z,1,1.0521088676627262,771.506902699999,771.5206487000105,772.5818521000037,772.5550008999999,0.6774753999779932,None,,,Shuai,001,2025-03-10_20h46.54.639,pleaseworkstroopcontrol,2024.2.4,60.0295585560789,2025-03-10 20h47.14.762314 -0700,
test,inconsistent,29,green,blue,word,z,800,2000,173,55,2,z,1,0.5042374000186101,None,2,55,173,28,772.5818521000037,,,,,,,,,772.5749673999962,772.5818521000037,772.5818521000037,0.02018560000578873,772.7705961000174,772.7705961000174,,,773.0896866999974,z,1,1.0573881081209038,773.0904190000147,773.1038580000168,774.165069300012,774.1389269999927,0.5042374000186101,None,,,Shuai,001,2025-03-10_20h46.54.639,pleaseworkstroopcontrol,2024.2.4,60.0295585560789,2025-03-10 20h47.14.762314 -0700,
test,inconsistent,25,red,blue,word,z,800,2000,174,56,2,z,1,0.46200410000164993,None,2,56,174,24,774.165069300012,,,,,,,,,774.1586626000062,774.165069300012,774.165069300012,0.019999599986476824,774.3541674000153,774.3541674000153,,,774.6396118999983,z,1,5.235263781013405,774.6402964000008,774.6540977999975,779.9062580000027,779.872457599995,0.46200410000164993,None,,,Shuai,001,2025-03-10_20h46.54.639,pleaseworkstroopcontrol,2024.2.4,60.0295585560789,2025-03-10 20h47.14.762314 -0700,
test,inconsistent,20,red,green,word,z,800,2000,175,57,2,z,1,0.6256548000092153,None,2,57,175,19,779.9062580000027,,,,,,,,,779.9005919999909,779.9062580000027,779.9062580000027,0.028191199991852045,780.0883858000161,780.0883858000161,,,780.5402000000176,z,1,1.0102632066027653,780.5410011000058,780.5546661000117,781.5658336000051,781.5392813000071,0.6256548000092153,None,,,Shuai,001,2025-03-10_20h46.54.639,pleaseworkstroopcontrol,2024.2.4,60.0295585560789,2025-03-10 20h47.14.762314 -0700,
test,consistent,38,blue,blue,word,m,800,2000,176,58,2,z,0,0.5645574000081979,None,2,58,176,37,781.5658336000051,,,,,,,,,781.5591568000091,781.5658336000051,781.5658336000051,0.019953399983933195,781.7547609000176,781.7547609000176,,,782.1405118000112,z,0,4.505963254764998,782.141185799992,782.1548902000068,786.6713037000154,786.6400513999979,0.5645574000081979,None,,,Shuai,001,2025-03-10_20h46.54.639,pleaseworkstroopcontrol,2024.2.4,60.0295585560789,2025-03-10 20h47.14.762314 -0700,
test,inconsistent,32,orange,green,word,z,800,2000,177,0,3,z,1,0.6660936000116635,None,3,0,177,31,786.6713037000154,,,,,,,,,786.6634654999943,786.6713037000154,786.6713037000154,0.02384059998439625,786.8553530999925,786.8553530999925,,,787.3411567000148,z,1,1.7203364931996274,787.3421062999987,787.3552970000019,789.0848431999912,789.0568914000178,0.6660936000116635,None,,,Shuai,001,2025-03-10_20h46.54.639,pleaseworkstroopcontrol,2024.2.4,60.0295585560789,2025-03-10 20h47.14.762314 -0700,
test,consistent,36,red,red,word,m,800,2000,178,1,3,m,1,0.6584787000028882,None,3,1,178,35,789.0848431999912,,,,,,,,,789.0789555000083,789.0848431999912,789.0848431999912,0.021937299985438585,789.2723781999957,789.2723781999957,,,789.7580608999997,m,1,2.4804846073710385,789.7587424000085,789.7724956000166,792.2466552999977,792.2238642000011,0.6584787000028882,None,,,Shuai,001,2025-03-10_20h46.54.639,pleaseworkstroopcontrol,2024.2.4,60.0295585560789,2025-03-10 20h47.14.762314 -0700,
test,inconsistent,6,red,yellow,word,z,800,2000,179,2,3,z,1,0.6223729000193998,None,3,2,179,5,792.2466552999977,,,,,,,,,792.23987759999,792.2466552999977,792.2466552999977,0.016149099974427372,792.4393144999922,792.4393144999922,,,792.8751114000042,z,1,3.216036423331897,792.87579250001,792.8898083000095,796.112887299998,796.0909320999926,0.6223729000193998,None,,,Shuai,001,2025-03-10_20h46.54.639,pleaseworkstroopcontrol,2024.2.4,60.0295585560789,2025-03-10 20h47.14.762314 -0700,
test,inconsistent,4,red,green,word,z,800,2000,180,3,3,z,1,0.6654933000099845,None,3,3,180,3,796.112887299998,,,,,,,,,796.1069881000149,796.112887299998,796.112887299998,0.01635859999805689,796.3063351000019,796.3063351000019,,,796.7920920999895,z,1,5.987953455267809,796.7928228999954,796.8062094000052,802.8042476999981,802.7745788000175,0.6654933000099845,None,,,Shuai,001,2025-03-10_20h46.54.639,pleaseworkstroopcontrol,2024.2.4,60.0295585560789,2025-03-10 20h47.14.762314 -0700,
test,inconsistent,33,yellow,green,word,z,800,2000,181,4,3,z,1,0.8322915000026114,None,3,4,181,32,802.8042476999981,,,,,,,,,802.798509699991,802.8042476999981,802.8042476999981,0.023815000022295862,802.9903728000063,802.9903728000063,,,803.6426587000024,z,1,1.0509104485154195,803.6433134000108,803.6568191999977,804.721028800006,804.6915963999927,0.8322915000026114,None,,,Shuai,001,2025-03-10_20h46.54.639,pleaseworkstroopcontrol,2024.2.4,60.0295585560789,2025-03-10 20h47.14.762314 -0700,
test,inconsistent,26,green,yellow,word,z,800,2000,182,5,3,z,1,0.762421399995219,None,3,5,182,25,804.721028800006,,,,,,,,,804.7149531000177,804.721028800006,804.721028800006,0.02334840002004057,804.907020100014,804.907020100014,,,805.4926955999981,z,1,3.210333557115459,805.4933719999972,805.5070507999917,808.7203064000059,808.6921991000127,0.762421399995219,None,,,Shuai,001,2025-03-10_20h46.54.639,pleaseworkstroopcontrol,2024.2.4,60.0295585560789,2025-03-10 20h47.14.762314 -0700,
test,consistent,41,green,green,word,m,800,2000,183,6,3,m,1,0.8020727999974042,None,3,6,183,40,808.7203064000059,,,,,,,,,808.7140839000058,808.7203064000059,808.7203064000059,0.022126700001535937,808.9073975000065,808.9073975000065,,,809.5265004000103,m,1,2.5447225067166275,809.5271394000156,809.5410346999997,812.0955531999934,812.0589839000022,0.8020727999974042,None,,,Shuai,001,2025-03-10_20h46.54.639,pleaseworkstroopcontrol,2024.2.4,60.0295585560789,2025-03-10 20h47.14.762314 -0700,
test,consistent,7,green,green,word,m,800,2000,184,7,3,m,1,0.731263299996499,None,3,7,184,6,812.0955531999934,,,,,,,,,812.0898079000181,812.0955531999934,812.0955531999934,0.03085149999242276,812.2746859000181,812.2746859000181,,,812.8438243000128,m,1,2.8847558937363336,812.8444993000012,812.8577904000122,815.7670049000008,815.7259919999924,0.731263299996499,None,,,Shuai,001,2025-03-10_20h46.54.639,pleaseworkstroopcontrol,2024.2.4,60.0295585560789,2025-03-10 20h47.14.762314 -0700,
test,consistent,47,blue,blue,word,m,800,2000,185,8,3,m,1,0.7598855000105686,None,3,8,185,46,815.7670049000008,,,,,,,,,815.7599566999997,815.7670049000008,815.7670049000008,0.03395420001470484,815.9416877999902,815.9416877999902,,,816.543264100008,m,1,1.030339308956659,816.5439131000021,816.5580755000119,817.5888785000134,817.5596480999957,0.7598855000105686,None,,,Shuai,001,2025-03-10_20h46.54.639,pleaseworkstroopcontrol,2024.2.4,60.0295585560789,2025-03-10 20h47.14.762314 -0700,
test,inconsistent,13,purple,red,word,z,800,2000,186,9,3,z,1,0.6678137999842875,None,3,9,186,12,817.5888785000134,,,,,,,,,817.580363999994,817.5888785000134,817.5888785000134,0.020679600012954324,817.7752187000006,817.7752187000006,,,818.2606736000162,z,1,3.6385837860225285,818.2613166999945,818.2752049000119,821.9210908999958,821.893370500009,0.6678137999842875,None,,,Shuai,001,2025-03-10_20h46.54.639,pleaseworkstroopcontrol,2024.2.4,60.0295585560789,2025-03-10 20h47.14.762314 -0700,
test,consistent,34,green,green,word,m,800,2000,187,10,3,m,1,0.687921800010372,None,3,10,187,33,821.9210908999958,,,,,,,,,821.9144230000093,821.9210908999958,821.9210908999958,0.021129999979166314,822.108991599991,822.108991599991,,,822.6114658000006,m,1,1.7463167025155166,822.612111800001,822.6262373999925,824.3658413999947,824.343551900005,0.687921800010372,None,,,Shuai,001,2025-03-10_20h46.54.639,pleaseworkstroopcontrol,2024.2.4,60.0295585560789,2025-03-10 20h47.14.762314 -0700,
test,consistent,43,green,green,word,m,800,2000,188,11,3,m,1,0.9451339000079315,None,3,11,188,42,824.3658413999947,,,,,,,,,824.3597340999986,824.3658413999947,824.3658413999947,0.01625909999711439,824.5590135999955,824.5590135999955,,,825.3280634999974,m,1,5.3182809910152535,825.3287157000159,825.3426890000119,830.6728616000037,830.6441752999963,0.9451339000079315,None,,,Shuai,001,2025-03-10_20h46.54.639,pleaseworkstroopcontrol,2024.2.4,60.0295585560789,2025-03-10 20h47.14.762314 -0700,
test,inconsistent,48,yellow,red,word,z,800,2000,189,12,3,z,1,0.814838200021768,None,3,12,189,47,830.6728616000037,,,,,,,,,830.6654081000015,830.6728616000037,830.6728616000037,0.02137500001117587,830.8595307999931,830.8595307999931,,,831.4956074999936,z,1,3.146749341414475,831.4962781000067,831.5095797000104,834.6542537999921,834.6277726000117,0.814838200021768,None,,,Shuai,001,2025-03-10_20h46.54.639,pleaseworkstroopcontrol,2024.2.4,60.0295585560789,2025-03-10 20h47.14.762314 -0700,
test,consistent,40,yellow,yellow,word,m,800,2000,190,13,3,m,1,0.7766633999999613,None,3,13,190,39,834.6542537999921,,,,,,,,,834.647749900003,834.6542537999921,834.6542537999921,0.020059900009073317,834.8435084999946,834.8435084999946,,,835.4461302999989,m,1,2.684430007532054,835.4471672000072,835.459975500009,838.1540856999927,838.1281639999943,0.7766633999999613,None,,,Shuai,001,2025-03-10_20h46.54.639,pleaseworkstroopcontrol,2024.2.4,60.0295585560789,2025-03-10 20h47.14.762314 -0700,
test,consistent,57,yellow,yellow,word,m,800,2000,191,14,3,m,1,0.6062650000094436,None,3,14,191,56,838.1540856999927,,,,,,,,,838.1475100000098,838.1540856999927,838.1540856999927,0.019492999999783933,838.3438371999946,838.3438371999946,,,838.7630172999925,m,1,1.0311691902576157,838.7636663000158,838.7771676999982,839.8085508999939,839.7784587999922,0.6062650000094436,None,,,Shuai,001,2025-03-10_20h46.54.639,pleaseworkstroopcontrol,2024.2.4,60.0295585560789,2025-03-10 20h47.14.762314 -0700,
test,inconsistent,44,green,red,word,z,800,2000,192,15,3,z,1,0.6672373999899719,None,3,15,192,43,839.8085508999939,,,,,,,,,839.8019801999908,839.8085508999939,839.8085508999939,0.023700699995970353,839.9940866999968,839.9940866999968,,,840.4798520999902,z,1,2.9727398999114047,840.480572600005,840.4941162999894,843.4748765999975,843.4454108999926,0.6672373999899719,None,,,Shuai,001,2025-03-10_20h46.54.639,pleaseworkstroopcontrol,2024.2.4,60.0295585560789,2025-03-10 20h47.14.762314 -0700,
test,consistent,46,yellow,yellow,word,m,800,2000,193,16,3,m,1,0.5976630999939516,None,3,16,193,45,843.4748765999975,,,,,,,,,843.4688754999952,843.4748765999975,843.4748765999975,0.023519299982581288,843.6606109999993,843.6606109999993,,,844.0799652000132,m,1,4.404548189025212,844.0806088999962,844.094442200003,848.5057407999993,848.479347799992,0.5976630999939516,None,,,Shuai,001,2025-03-10_20h46.54.639,pleaseworkstroopcontrol,2024.2.4,60.0295585560789,2025-03-10 20h47.14.762314 -0700,
test,inconsistent,9,red,blue,word,z,800,2000,194,17,3,z,1,0.8802538999880198,None,3,17,194,8,848.5057407999993,,,,,,,,,848.4991183000093,848.5057407999993,848.5057407999993,0.020045499986736104,848.6950398999907,848.6950398999907,,,849.3971717999957,z,1,2.754212303797187,849.3978449999995,849.4114233000146,852.1754883000103,852.1463517000084,0.8802538999880198,None,,,Shuai,001,2025-03-10_20h46.54.639,pleaseworkstroopcontrol,2024.2.4,60.0295585560789,2025-03-10 20h47.14.762314 -0700,
test,inconsistent,5,orange,blue,word,z,800,2000,195,18,3,z,1,0.5627888000162784,None,3,18,195,4,852.1754883000103,,,,,,,,,852.168806200003,852.1754883000103,852.1754883000103,0.02249100001063198,852.3618490000081,852.3618490000081,,,852.7475381999975,z,1,1.4094920350564923,852.748313499993,852.7618974999932,854.1764212000126,854.1474808999919,0.5627888000162784,None,,,Shuai,001,2025-03-10_20h46.54.639,pleaseworkstroopcontrol,2024.2.4,60.0295585560789,2025-03-10 20h47.14.762314 -0700,
test,inconsistent,27,green,red,word,z,800,2000,196,19,3,z,1,0.6799459999892861,None,3,19,196,26,854.1764212000126,,,,,,,,,854.1709570999956,854.1764212000126,854.1764212000126,0.023631100018974394,854.3618940000015,854.3618940000015,,,854.8645678999892,z,1,3.7971676922606648,854.8652400000137,854.8788570000033,858.6739129000052,858.6477012000105,0.6799459999892861,None,,,Shuai,001,2025-03-10_20h46.54.639,pleaseworkstroopcontrol,2024.2.4,60.0295585560789,2025-03-10 20h47.14.762314 -0700,
test,inconsistent,53,red,yellow,word,z,800,2000,197,20,3,z,1,0.6285086999996565,None,3,20,197,52,858.6739129000052,,,,,,,,,858.6676073000126,858.6739129000052,858.6739129000052,0.020076599990716204,858.8624349000165,858.8624349000165,,,859.3147138000058,z,1,1.909650274162661,859.3156510000117,859.3294611000165,861.2424692999921,861.2136005999928,0.6285086999996565,None,,,Shuai,001,2025-03-10_20h46.54.639,pleaseworkstroopcontrol,2024.2.4,60.0295585560789,2025-03-10 20h47.14.762314 -0700,
test,consistent,38,blue,blue,word,m,800,2000,198,21,3,m,1,0.7627917000208981,None,3,21,198,37,861.2424692999921,,,,,,,,,861.2361339000054,861.2424692999921,861.2424692999921,0.022551900008693337,861.4294421999948,861.4294421999948,,,862.014620300004,m,1,5.962305356435652,862.01543639999,862.0296710999974,867.9945056000142,867.9644980000157,0.7627917000208981,None,,,Shuai,001,2025-03-10_20h46.54.639,pleaseworkstroopcontrol,2024.2.4,60.0295585560789,2025-03-10 20h47.14.762314 -0700,
test,inconsistent,20,red,green,word,z,800,2000,199,22,3,z,1,0.6502436000155285,None,3,22,199,19,867.9945056000142,,,,,,,,,867.9887839000148,867.9945056000142,867.9945056000142,0.02426099998410791,868.180085800006,868.180085800006,,,868.6489184999955,z,1,5.373738594609467,868.6496134999907,868.6634011999995,874.0385398000071,874.0149168999924,0.6502436000155285,None,,,Shuai,001,2025-03-10_20h46.54.639,pleaseworkstroopcontrol,2024.2.4,60.0295585560789,2025-03-10 20h47.14.762314 -0700,
test,inconsistent,37,red,green,word,z,800,2000,200,23,3,z,1,0.9047840999846812,None,3,23,200,36,874.0385398000071,,,,,,,,,874.0328370000061,874.0385398000071,874.0385398000071,0.017975199996726587,874.2307749000029,874.2307749000029,,,874.949344099994,z,1,2.612133258758976,874.9500372000039,874.9640384000086,877.5798154000076,877.5488593000046,0.9047840999846812,None,,,Shuai,001,2025-03-10_20h46.54.639,pleaseworkstroopcontrol,2024.2.4,60.0295585560789,2025-03-10 20h47.14.762314 -0700,
