type,condition1,trialNo,stim1,textColor,stimFormat,key,ITI,presTime,thisN,thisTrialN,thisRepN,key_resp.keys,key_resp.corr,key_resp.rt,key_resp.duration,stroop.thisRepN,stroop.thisTrialN,stroop.thisN,stroop.thisIndex,thisRow.t,notes,welcome.started,text_welcome.started,press_space.started,welcome.stopped,press_space.keys,press_space.rt,press_space.duration,trial.started,key_resp.started,randomImage.started,randomImage.stopped,text_stroop.started,dot.started,text_stroop.stopped,trial.stopped,stroop.key_resp.keys,stroop.key_resp.corr,stroop.key_resp.rt,stroop.key_resp.duration,time_fixation,fixation.started,dot_fixation.started,dot_fixation.stopped,fixation.stopped,dot.stopped,thanks.started,thank_you.started,thanks.stopped,participant,session,date,expName,psychopyVersion,frameRate,expStart,
,,,,,,,,,,,,,,,,,,,,,,0.0019280999986222014,0.005207599999266677,0.005207599999266677,9.337588499998674,space,9.307141400000546,None,,,,,,,,,,,,,,,,,,,,,,110133,001,2025-03-08_17h38.14.901,stroop,2024.2.4,60.02098333615259,2025-03-08 17h38.20.313674 -0800,
test,inconsistent,9,red,blue,word,z,800,2000,0,0,0,z,1,0.9173437000026752,None,0,0,0,8,9.93509719999929,,,,,,,,,9.639594000000216,9.93509719999929,9.93509719999929,9.93509719999929,9.93509719999929,10.04472750000059,10.04472750000059,10.862161000000924,z,1,0.9173437000026752,None,4.015977278307011,10.863062500000524,10.878116500000033,15.485208900001453,14.862391599999683,,,,,110133,001,2025-03-08_17h38.14.901,stroop,2024.2.4,60.02098333615259,2025-03-08 17h38.20.313674 -0800,
test,inconsistent,55,green,yellow,word,z,800,2000,1,1,0,z,1,0.7174775999992562,None,0,1,1,54,15.485208900001453,,,,,,,,,15.192076399998768,15.485208900001453,15.485208900001453,15.485208900001453,15.485208900001453,15.56213740000021,15.56213740000021,16.212800100001914,z,1,0.7174775999992562,None,5.701163422232252,16.2138483000017,16.228490099998453,22.40214080000078,21.91290630000003,,,,,110133,001,2025-03-08_17h38.14.901,stroop,2024.2.4,60.02098333615259,2025-03-08 17h38.20.313674 -0800,
test,inconsistent,5,orange,blue,word,z,800,2000,2,2,0,z,1,0.4812461999972584,None,0,2,2,4,22.40214080000078,,,,,,,,,22.25976290000108,22.40214080000078,22.40214080000078,22.40214080000078,22.40214080000078,22.61294800000178,22.61294800000178,22.896682200000214,z,1,0.4812461999972584,None,2.5841924090362287,22.897397500000807,22.912684899998567,25.746048500001052,25.47995599999922,,,,,110133,001,2025-03-08_17h38.14.901,stroop,2024.2.4,60.02098333615259,2025-03-08 17h38.20.313674 -0800,
test,inconsistent,6,red,yellow,word,z,800,2000,3,3,0,z,1,0.7971217000012984,None,0,3,3,5,25.746048500001052,,,,,,,,,25.6941525000002,25.746048500001052,25.746048500001052,,25.746048500001052,26.196909499998583,26.196909499998583,26.547441300001083,z,1,0.7971217000012984,None,1.58397532204485,26.548261200001434,26.56277820000105,28.50993020000169,28.130040799998824,,,,,110133,001,2025-03-08_17h38.14.901,stroop,2024.2.4,60.02098333615259,2025-03-08 17h38.20.313674 -0800,
test,inconsistent,14,yellow,blue,word,z,800,2000,4,4,0,z,1,0.795904700000392,None,0,4,4,13,28.50993020000169,,,,,,,,,28.363659599999664,28.50993020000169,28.50993020000169,28.50993020000169,28.50993020000169,28.829697100001795,28.829697100001795,29.314085800000612,z,1,0.795904700000392,None,5.543082117072606,29.31488570000147,29.330137100001593,35.378683800001454,34.84752709999884,,,,,110133,001,2025-03-08_17h38.14.901,stroop,2024.2.4,60.02098333615259,2025-03-08 17h38.20.313674 -0800,
test,inconsistent,31,yellow,red,word,z,800,2000,5,5,0,z,1,0.6212309999973513,None,0,5,5,30,35.378683800001454,,,,,,,,,35.07614100000137,35.378683800001454,35.378683800001454,35.378683800001454,35.378683800001454,35.547384199999215,35.547384199999215,36.01467739999862,z,1,0.6212309999973513,None,4.679318022205022,36.01551660000041,36.0305397000011,41.25823300000047,40.681484900000214,,,,,110133,001,2025-03-08_17h38.14.901,stroop,2024.2.4,60.02098333615259,2025-03-08 17h38.20.313674 -0800,
test,inconsistent,21,black,yellow,word,z,800,2000,6,6,0,z,1,0.6516601000002993,None,0,6,6,20,41.25823300000047,,,,,,,,,41.05126839999866,41.25823300000047,41.25823300000047,41.25823300000047,41.25823300000047,41.38129019999906,41.38129019999906,41.915117000000464,z,1,0.6516601000002993,None,1.2818121659337858,41.91589050000039,41.93119239999942,43.80187429999933,43.18178170000101,,,,,110133,001,2025-03-08_17h38.14.901,stroop,2024.2.4,60.02098333615259,2025-03-08 17h38.20.313674 -0800,
test,inconsistent,52,red,green,word,z,800,2000,7,7,0,z,1,0.6372136999998474,None,0,7,7,51,43.80187429999933,,,,,,,,,43.50253320000047,43.80187429999933,43.80187429999933,43.80187429999933,43.80187429999933,43.89818500000183,43.89818500000183,44.4487455999988,z,1,0.6372136999998474,None,5.1598259562530835,44.44957240000076,44.46478429999843,50.233138899999176,49.59915739999997,,,,,110133,001,2025-03-08_17h38.14.901,stroop,2024.2.4,60.02098333615259,2025-03-08 17h38.20.313674 -0800,
test,consistent,28,yellow,yellow,word,m,800,2000,8,8,0,z,0,0.46918420000292826,None,0,8,8,27,50.233138899999176,,,,,,,,,49.93145839999852,50.233138899999176,50.233138899999176,50.233138899999176,50.233138899999176,50.29858880000029,50.29858880000029,50.71615930000189,z,0,0.46918420000292826,None,5.769707107581399,50.717244100000244,50.73217719999957,57.195402000001195,56.48373400000128,,,,,110133,001,2025-03-08_17h38.14.901,stroop,2024.2.4,60.02098333615259,2025-03-08 17h38.20.313674 -0800,
test,consistent,36,red,red,word,m,800,2000,9,9,0,m,1,0.610065000000759,None,0,9,9,35,57.195402000001195,,,,,,,,,56.8945730000014,57.195402000001195,57.195402000001195,57.195402000001195,57.195402000001195,57.19848690000072,57.19848690000072,57.81653880000158,m,1,0.610065000000759,None,5.089512625165275,57.81733710000117,57.83288270000048,63.57368829999905,62.90090910000072,,,,,110133,001,2025-03-08_17h38.14.901,stroop,2024.2.4,60.02098333615259,2025-03-08 17h38.20.313674 -0800,
test,consistent,34,green,green,word,m,800,2000,10,10,0,m,1,0.5714176999972551,None,0,10,10,33,63.57368829999905,,,,,,,,,63.27323809999871,63.57368829999905,63.57368829999905,63.57368829999905,63.57368829999905,63.61672980000003,63.61672980000003,64.15062100000068,m,1,0.5714176999972551,None,5.535833949626013,64.15140669999892,64.16664989999845,70.34592469999916,69.68437429999904,,,,,110133,001,2025-03-08_17h38.14.901,stroop,2024.2.4,60.02098333615259,2025-03-08 17h38.20.313674 -0800,
test,consistent,54,green,green,word,m,800,2000,11,11,0,m,1,0.5231464999997115,None,0,11,11,53,70.34592469999916,,,,,,,,,70.04371520000132,70.34592469999916,70.34592469999916,70.34592469999916,70.34592469999916,70.40047689999847,70.40047689999847,70.88484260000041,m,1,0.5231464999997115,None,5.948896073234885,70.88563069999873,70.90088599999945,77.29046110000127,76.81832729999951,,,,,110133,001,2025-03-08_17h38.14.901,stroop,2024.2.4,60.02098333615259,2025-03-08 17h38.20.313674 -0800,
test,inconsistent,50,yellow,green,word,z,800,2000,12,12,0,z,1,0.9729646000014327,None,0,12,12,49,77.29046110000127,,,,,,,,,77.18871460000082,77.29046110000127,77.29046110000127,,77.29046110000127,77.51854459999959,77.51854459999959,78.26909919999889,z,1,0.9729646000014327,None,1.6759319676852487,78.27000279999993,78.28465750000032,80.68481320000137,79.93532400000186,,,,,110133,001,2025-03-08_17h38.14.901,stroop,2024.2.4,60.02098333615259,2025-03-08 17h38.20.313674 -0800,
test,consistent,38,blue,blue,word,m,800,2000,13,13,0,m,1,0.576145600000018,None,0,13,13,37,80.68481320000137,,,,,,,,,80.28904460000194,80.68481320000137,80.68481320000137,80.68481320000137,80.68481320000137,80.68787259999954,80.68787259999954,81.26904239999931,m,1,0.576145600000018,None,5.007943723662991,81.26974239999981,81.28521120000005,87.06276480000088,86.26920880000034,,,,,110133,001,2025-03-08_17h38.14.901,stroop,2024.2.4,60.02098333615259,2025-03-08 17h38.20.313674 -0800,
test,inconsistent,15,yellow,red,word,z,800,2000,14,14,0,z,1,0.45848259999911534,None,0,14,14,14,87.06276480000088,,,,,,,,,86.76840119999906,87.06276480000088,87.06276480000088,87.06276480000088,87.06276480000088,87.06612759999916,87.06612759999916,87.53578890000063,z,1,0.45848259999911534,None,1.115300614679581,87.53613949999999,87.5521527000019,89.27005640000061,88.63602349999928,,,,,110133,001,2025-03-08_17h38.14.901,stroop,2024.2.4,60.02098333615259,2025-03-08 17h38.20.313674 -0800,
test,inconsistent,3,blue,red,word,z,800,2000,15,15,0,z,1,0.7565426000001025,None,0,15,15,2,89.27005640000061,,,,,,,,,88.97085650000008,89.27005640000061,89.27005640000061,89.27005640000061,89.27005640000061,89.33607839999968,89.33607839999968,90.0367382000004,z,1,0.7565426000001025,None,2.4450598164734982,90.0375305000016,90.05257020000136,93.09434350000083,92.46982080000089,,,,,110133,001,2025-03-08_17h38.14.901,stroop,2024.2.4,60.02098333615259,2025-03-08 17h38.20.313674 -0800,
test,inconsistent,24,blue,green,word,z,800,2000,16,16,0,z,1,0.7832698999991408,None,0,16,16,23,93.09434350000083,,,,,,,,,92.79160069999853,93.09434350000083,93.09434350000083,93.09434350000083,93.09434350000083,93.16992089999985,93.16992089999985,93.88708970000152,z,1,0.7832698999991408,None,5.074273713499238,93.88787260000026,93.9028470000012,99.5664609000014,98.95377839999855,,,,,110133,001,2025-03-08_17h38.14.901,stroop,2024.2.4,60.02098333615259,2025-03-08 17h38.20.313674 -0800,
test,consistent,12,yellow,yellow,word,m,800,2000,17,17,0,z,0,0.4117915999995603,None,0,17,17,11,99.5664609000014,,,,,,,,,99.34609339999952,99.5664609000014,99.5664609000014,99.5664609000014,99.5664609000014,99.65355830000044,99.65355830000044,99.98769050000192,z,0,0.4117915999995603,None,3.246755505880567,99.98848530000032,100.00356150000152,103.58428970000023,103.2208137000016,,,,,110133,001,2025-03-08_17h38.14.901,stroop,2024.2.4,60.02098333615259,2025-03-08 17h38.20.313674 -0800,
test,consistent,18,red,red,word,m,800,2000,18,18,0,m,1,0.7438736000003701,None,0,18,18,17,103.58428970000023,,,,,,,,,103.52540690000023,103.58428970000023,103.58428970000023,,103.58428970000023,103.92094730000099,103.92094730000099,104.33825609999985,m,1,0.7438736000003701,None,5.075406080076317,104.33940259999872,104.3541241999992,110.0248700000011,109.40487510000094,,,,,110133,001,2025-03-08_17h38.14.901,stroop,2024.2.4,60.02098333615259,2025-03-08 17h38.20.313674 -0800,
test,inconsistent,13,purple,red,word,z,800,2000,19,19,0,z,1,0.6322147000028053,None,0,19,19,12,110.0248700000011,,,,,,,,,109.7291210000003,110.0248700000011,110.0248700000011,110.0248700000011,110.0248700000011,110.10485039999912,110.10485039999912,110.67224039999928,z,1,0.6322147000028053,None,2.280848645626467,110.67321770000126,110.68790620000073,113.54848950000087,112.93854740000097,,,,,110133,001,2025-03-08_17h38.14.901,stroop,2024.2.4,60.02098333615259,2025-03-08 17h38.20.313674 -0800,
test,inconsistent,42,green,yellow,word,z,800,2000,20,20,0,z,1,0.6048523999997997,None,0,20,20,41,113.54848950000087,,,,,,,,,113.24990270000126,113.54848950000087,113.54848950000087,113.54848950000087,113.54848950000087,113.63822509999954,113.63822509999954,114.15566119999858,z,1,0.6048523999997997,None,5.63279402981503,114.15662879999945,114.17156070000055,120.30544880000161,119.77274910000051,,,,,110133,001,2025-03-08_17h38.14.901,stroop,2024.2.4,60.02098333615259,2025-03-08 17h38.20.313674 -0800,
test,inconsistent,29,green,blue,word,z,800,2000,21,21,0,z,1,0.5725172999991628,None,0,21,21,28,120.30544880000161,,,,,,,,,120.08203050000157,120.30544880000161,120.30544880000161,120.30544880000161,120.30544880000161,120.48866460000136,120.48866460000136,120.88935200000196,z,1,0.5725172999991628,None,5.684182389666354,120.89030819999971,120.90557640000043,127.10704540000006,126.57353159999911,,,,,110133,001,2025-03-08_17h38.14.901,stroop,2024.2.4,60.02098333615259,2025-03-08 17h38.20.313674 -0800,
test,consistent,46,yellow,yellow,word,m,800,2000,22,22,0,m,1,0.5702043999990565,None,0,22,22,45,127.10704540000006,,,,,,,,,126.88779369999975,127.10704540000006,127.10704540000006,127.10704540000006,127.10704540000006,127.28980460000093,127.28980460000093,127.690089300002,m,1,0.5702043999990565,None,5.297613835828743,127.69088670000201,127.70649259999846,133.49488930000007,132.97418390000166,,,,,110133,001,2025-03-08_17h38.14.901,stroop,2024.2.4,60.02098333615259,2025-03-08 17h38.20.313674 -0800,
test,inconsistent,44,green,red,word,z,800,2000,23,23,0,z,1,0.7098283999985142,None,0,23,23,43,133.49488930000007,,,,,,,,,133.1919740000012,133.49488930000007,133.49488930000007,133.49488930000007,133.49488930000007,133.6903080000011,133.6903080000011,134.20749010000145,z,1,0.7098283999985142,None,2.6893382886682073,134.20818789999976,134.22340669999903,137.53348460000052,136.89168739999877,,,,,110133,001,2025-03-08_17h38.14.901,stroop,2024.2.4,60.02098333615259,2025-03-08 17h38.20.313674 -0800,
test,inconsistent,56,green,red,word,z,800,2000,24,24,0,z,1,0.6750629999987723,None,0,24,24,55,137.53348460000052,,,,,,,,,137.23016819999975,137.53348460000052,137.53348460000052,137.53348460000052,137.53348460000052,137.60745840000163,137.60745840000163,138.2246539000007,z,1,0.6750629999987723,None,3.9887990127300594,138.22551079999903,138.24076240000068,142.66589680000106,142.20816600000035,,,,,110133,001,2025-03-08_17h38.14.901,stroop,2024.2.4,60.02098333615259,2025-03-08 17h38.20.313674 -0800,
test,consistent,45,red,red,word,m,800,2000,25,25,0,m,1,0.5957885999996506,None,0,25,25,44,142.66589680000106,,,,,,,,,142.566663900001,142.66589680000106,142.66589680000106,,142.66589680000106,142.90813459999845,142.90813459999845,143.27561530000094,m,1,0.5957885999996506,None,4.117269047864532,143.27642969999943,143.29115970000203,147.96433539999998,147.39195050000126,,,,,110133,001,2025-03-08_17h38.14.901,stroop,2024.2.4,60.02098333615259,2025-03-08 17h38.20.313674 -0800,
test,consistent,51,red,red,word,m,800,2000,26,26,0,m,1,0.5200323000026401,None,0,26,26,50,147.96433539999998,,,,,,,,,147.79284349999944,147.96433539999998,147.96433539999998,147.96433539999998,147.96433539999998,148.1083127999991,148.1083127999991,148.4921643000016,m,1,0.5200323000026401,None,2.554459291528094,148.49315320000096,148.50827710000158,151.60059389999878,151.04253590000008,,,,,110133,001,2025-03-08_17h38.14.901,stroop,2024.2.4,60.02098333615259,2025-03-08 17h38.20.313674 -0800,
test,inconsistent,39,red,yellow,word,z,800,2000,27,27,0,z,1,0.6027673999997205,None,0,27,27,38,151.60059389999878,,,,,,,,,151.2983869000018,151.60059389999878,151.60059389999878,151.60059389999878,151.60059389999878,151.75869729999977,151.75869729999977,152.20950939999966,z,1,0.6027673999997205,None,4.5913936224166765,152.21062109999912,152.2255354000008,157.42221419999987,156.79321870000058,,,,,110133,001,2025-03-08_17h38.14.901,stroop,2024.2.4,60.02098333615259,2025-03-08 17h38.20.313674 -0800,
test,consistent,35,red,red,word,m,800,2000,28,28,0,m,1,0.5469752999997581,None,0,28,28,34,157.42221419999987,,,,,,,,,157.15981720000127,157.42221419999987,157.42221419999987,157.42221419999987,157.42221419999987,157.50952490000054,157.50952490000054,157.97631940000065,m,1,0.5469752999997581,None,1.6643442087254208,157.97700059999988,157.992560900002,160.11404350000157,159.62655069999892,,,,,110133,001,2025-03-08_17h38.14.901,stroop,2024.2.4,60.02098333615259,2025-03-08 17h38.20.313674 -0800,
test,consistent,41,green,green,word,m,800,2000,29,29,0,z,0,0.5498373999980686,None,0,29,29,40,160.11404350000157,,,,,,,,,159.94697779999842,160.11404350000157,160.11404350000157,160.11404350000157,160.11404350000157,160.34281719999854,160.34281719999854,160.67670409999846,z,0,0.5498373999980686,None,1.7569441530859722,160.67752979999932,160.693231199999,162.98346030000175,162.42649560000064,,,,,110133,001,2025-03-08_17h38.14.901,stroop,2024.2.4,60.02098333615259,2025-03-08 17h38.20.313674 -0800,
test,inconsistent,17,yellow,green,word,z,800,2000,30,30,0,z,1,0.6329009000000951,None,0,30,30,16,162.98346030000175,,,,,,,,,162.68802639999922,162.98346030000175,162.98346030000175,162.98346030000175,162.98346030000175,163.12643789999856,163.12643789999856,163.6273469000007,z,1,0.6329009000000951,None,3.6756959605104287,163.62851560000126,163.64314319999903,167.87251010000182,167.29387599999973,,,,,110133,001,2025-03-08_17h38.14.901,stroop,2024.2.4,60.02098333615259,2025-03-08 17h38.20.313674 -0800,
test,inconsistent,27,green,red,word,z,800,2000,31,31,0,z,1,0.5755642000003718,None,0,31,31,26,167.87251010000182,,,,,,,,,167.64287319999858,167.87251010000182,167.87251010000182,167.87251010000182,167.87251010000182,168.01066170000195,168.01066170000195,168.46129999999903,z,1,0.5755642000003718,None,1.9738670077767124,168.46254169999884,168.47692370000004,171.02078149999943,170.42743079999855,,,,,110133,001,2025-03-08_17h38.14.901,stroop,2024.2.4,60.02098333615259,2025-03-08 17h38.20.313674 -0800,
test,inconsistent,11,green,red,word,z,800,2000,32,32,0,z,1,0.6278190000011818,None,0,32,32,10,171.02078149999943,,,,,,,,,170.71966210000028,171.02078149999943,171.02078149999943,171.02078149999943,171.02078149999943,171.1271252000006,171.1271252000006,171.66128820000085,z,1,0.6278190000011818,None,3.6346238180152253,171.6621696000002,171.67722800000047,175.77150360000087,175.29479150000043,,,,,110133,001,2025-03-08_17h38.14.901,stroop,2024.2.4,60.02098333615259,2025-03-08 17h38.20.313674 -0800,
test,inconsistent,20,red,green,word,z,800,2000,33,33,0,z,1,0.6329906999999366,None,0,33,33,19,175.77150360000087,,,,,,,,,175.62922669999898,175.77150360000087,175.77150360000087,175.77150360000087,175.77150360000087,175.99429729999974,175.99429729999974,176.41196140000102,z,1,0.6329906999999366,None,2.1425813603867274,176.4126991000012,176.42793270000038,179.06388359999983,178.54508500000156,,,,,110133,001,2025-03-08_17h38.14.901,stroop,2024.2.4,60.02098333615259,2025-03-08 17h38.20.313674 -0800,
test,inconsistent,33,yellow,green,word,z,800,2000,34,34,0,z,1,0.6900712999995449,None,0,34,34,32,179.06388359999983,,,,,,,,,178.75735970000096,179.06388359999983,179.06388359999983,179.06388359999983,179.06388359999983,179.24451640000188,179.24451640000188,179.7623205000018,z,1,0.6900712999995449,None,5.918721994057608,179.76324029999887,179.7781634999992,186.38774339999873,185.6792228000013,,,,,110133,001,2025-03-08_17h38.14.901,stroop,2024.2.4,60.02098333615259,2025-03-08 17h38.20.313674 -0800,
test,consistent,40,yellow,yellow,word,m,800,2000,35,35,0,m,1,0.62782739999966,None,0,35,35,39,186.38774339999873,,,,,,,,,186.0873591999989,186.38774339999873,186.38774339999873,186.38774339999873,186.38774339999873,186.3905605,186.3905605,187.0295303999992,m,1,0.62782739999966,None,4.948454213175367,187.0306242000006,187.0454881000005,192.3818453999993,191.96293729999888,,,,,110133,001,2025-03-08_17h38.14.901,stroop,2024.2.4,60.02098333615259,2025-03-08 17h38.20.313674 -0800,
test,inconsistent,48,yellow,red,word,z,800,2000,36,36,0,z,1,0.7866848000012396,None,0,36,36,47,192.3818453999993,,,,,,,,,192.27665350000098,192.3818453999993,192.3818453999993,,192.3818453999993,192.66271659999984,192.66271659999984,193.1802663999988,z,1,0.7866848000012396,None,1.2859767731175955,193.18111860000135,193.19604769999933,195.0960234999984,194.46336800000063,,,,,110133,001,2025-03-08_17h38.14.901,stroop,2024.2.4,60.02098333615259,2025-03-08 17h38.20.313674 -0800,
test,inconsistent,10,green,yellow,word,z,800,2000,37,37,0,z,1,0.61075940000228,None,0,37,37,9,195.0960234999984,,,,,,,,,194.79963789999965,195.0960234999984,195.0960234999984,195.0960234999984,195.0960234999984,195.17966940000042,195.17966940000042,195.71379290000186,z,1,0.61075940000228,None,1.4399244133530944,195.7145735999984,195.72965850000037,197.80986720000146,197.14700380000068,,,,,110133,001,2025-03-08_17h38.14.901,stroop,2024.2.4,60.02098333615259,2025-03-08 17h38.20.313674 -0800,
test,inconsistent,22,red,yellow,word,z,800,2000,38,38,0,z,1,0.5404352000005019,None,0,38,38,21,197.80986720000146,,,,,,,,,197.5125650000009,197.80986720000146,197.80986720000146,197.80986720000146,197.80986720000146,197.8629793,197.8629793,198.36376709999968,z,1,0.5404352000005019,None,5.854725862793024,198.3648323999987,198.3800123000001,204.79298539999945,204.21406539999953,,,,,110133,001,2025-03-08_17h38.14.901,stroop,2024.2.4,60.02098333615259,2025-03-08 17h38.20.313674 -0800,
test,inconsistent,4,red,green,word,z,800,2000,39,39,0,z,1,0.5309385000000475,None,0,39,39,3,204.79298539999945,,,,,,,,,204.5574944,204.79298539999945,204.79298539999945,204.79298539999945,204.79298539999945,204.91396259999965,204.91396259999965,205.33133449999877,z,1,0.5309385000000475,None,5.195516851539115,205.33252559999892,205.3470540999988,211.09294260000024,210.51487949999864,,,,,110133,001,2025-03-08_17h38.14.901,stroop,2024.2.4,60.02098333615259,2025-03-08 17h38.20.313674 -0800,
test,consistent,1,red,red,word,m,800,2000,40,40,0,m,1,0.6195211999984167,None,0,40,40,0,211.09294260000024,,,,,,,,,210.7898533000007,211.09294260000024,211.09294260000024,211.09294260000024,211.09294260000024,211.2309056999984,211.2309056999984,211.71507689999999,m,1,0.6195211999984167,None,4.117654807300463,211.71602640000128,211.73117899999852,216.27786520000154,215.83173100000204,,,,,110133,001,2025-03-08_17h38.14.901,stroop,2024.2.4,60.02098333615259,2025-03-08 17h38.20.313674 -0800,
test,inconsistent,8,black,yellow,word,z,800,2000,41,41,0,z,1,0.5861519999998563,None,0,41,41,7,216.27786520000154,,,,,,,,,216.21668729999874,216.27786520000154,216.27786520000154,,216.27786520000154,216.53151520000029,216.53151520000029,216.8660259999997,z,1,0.5861519999998563,None,4.210555190993761,216.86685170000055,216.88168059999953,221.7036224000003,221.06591240000125,,,,,110133,001,2025-03-08_17h38.14.901,stroop,2024.2.4,60.02098333615259,2025-03-08 17h38.20.313674 -0800,
test,inconsistent,2,yellow,green,word,z,800,2000,42,42,0,z,1,0.4890326999993704,None,0,42,42,1,221.7036224000003,,,,,,,,,221.40777430000162,221.7036224000003,221.7036224000003,221.7036224000003,221.7036224000003,221.78192670000135,221.78192670000135,222.19966729999942,z,1,0.4890326999993704,None,1.899870134686107,222.20045089999985,222.21560949999912,224.59641199999896,224.09957289999875,,,,,110133,001,2025-03-08_17h38.14.901,stroop,2024.2.4,60.02098333615259,2025-03-08 17h38.20.313674 -0800,
test,inconsistent,58,yellow,red,word,z,800,2000,43,43,0,z,1,0.4945138000002771,None,0,43,43,57,224.59641199999896,,,,,,,,,224.42812490000142,224.59641199999896,224.59641199999896,224.59641199999896,224.59641199999896,224.81594269999914,224.81594269999914,225.09991789999913,z,1,0.4945138000002771,None,4.347300746539361,225.10073099999863,225.11600910000197,230.01817669999946,229.43341510000027,,,,,110133,001,2025-03-08_17h38.14.901,stroop,2024.2.4,60.02098333615259,2025-03-08 17h38.20.313674 -0800,
test,inconsistent,19,green,red,word,z,800,2000,44,44,0,z,1,0.5162789999994857,None,0,44,44,18,230.01817669999946,,,,,,,,,229.72212669999863,230.01817669999946,230.01817669999946,230.01817669999946,230.01817669999946,230.14987570000085,230.14987570000085,230.55049130000043,z,1,0.5162789999994857,None,4.7479097323310935,230.551534000002,230.56661470000108,235.86794830000144,235.28401880000092,,,,,110133,001,2025-03-08_17h38.14.901,stroop,2024.2.4,60.02098333615259,2025-03-08 17h38.20.313674 -0800,
test,inconsistent,26,green,yellow,word,z,800,2000,45,45,0,z,1,0.5225817000027746,None,0,45,45,25,235.86794830000144,,,,,,,,,235.64573709999968,235.86794830000144,235.86794830000144,235.86794830000144,235.86794830000144,235.9834324000003,235.9834324000003,236.40089340000122,z,1,0.5225817000027746,None,3.2897530917929925,236.40176559999964,236.41707759999917,240.17602780000016,239.68442359999972,,,,,110133,001,2025-03-08_17h38.14.901,stroop,2024.2.4,60.02098333615259,2025-03-08 17h38.20.313674 -0800,
test,inconsistent,53,red,yellow,word,z,800,2000,46,46,0,z,1,0.5815395999998145,None,0,46,46,52,240.17602780000016,,,,,,,,,239.93820830000186,240.17602780000016,240.17602780000016,240.17602780000016,240.17602780000016,240.40089559999979,240.40089559999979,240.76819800000158,z,1,0.5815395999998145,None,1.1168629823659917,240.76901029999863,240.7839657000004,242.28923990000112,241.88466060000064,,,,,110133,001,2025-03-08_17h38.14.901,stroop,2024.2.4,60.02098333615259,2025-03-08 17h38.20.313674 -0800,
test,consistent,57,yellow,yellow,word,m,800,2000,47,47,0,m,1,1.087331599999743,None,0,47,47,56,242.28923990000112,,,,,,,,,242.19153619999997,242.28923990000112,242.28923990000112,,242.28923990000112,242.5844834999989,242.5844834999989,243.38491760000034,m,1,1.087331599999743,None,1.5229837544206921,243.38594569999987,243.40105989999938,245.67676180000126,244.90146760000061,,,,,110133,001,2025-03-08_17h38.14.901,stroop,2024.2.4,60.02098333615259,2025-03-08 17h38.20.313674 -0800,
test,inconsistent,25,red,blue,word,z,800,2000,48,48,0,z,1,0.6024189999989176,None,0,48,48,24,245.67676180000126,,,,,,,,,245.27540210000006,245.67676180000126,245.67676180000126,245.67676180000126,245.67676180000126,245.6802573999994,245.6802573999994,246.28519660000165,z,1,0.6024189999989176,None,5.987306940108477,246.2862141000005,246.30123430000094,252.97054090000165,252.2690799000011,,,,,110133,001,2025-03-08_17h38.14.901,stroop,2024.2.4,60.02098333615259,2025-03-08 17h38.20.313674 -0800,
test,consistent,43,green,green,word,m,800,2000,49,49,0,m,1,0.9406004999982542,None,0,49,49,42,252.97054090000165,,,,,,,,,252.67072819999885,252.97054090000165,252.97054090000165,252.97054090000165,252.97054090000165,252.97379160000128,252.97379160000128,253.91934970000148,m,1,0.9406004999982542,None,1.1119141814204743,253.9202241999992,253.93533269999898,255.5485718000018,255.01958659999946,,,,,110133,001,2025-03-08_17h38.14.901,stroop,2024.2.4,60.02098333615259,2025-03-08 17h38.20.313674 -0800,
test,inconsistent,30,blue,red,word,z,800,2000,50,50,0,z,1,0.5396060999992187,None,0,50,50,29,255.5485718000018,,,,,,,,,255.38068320000093,255.5485718000018,255.5485718000018,255.5485718000018,255.5485718000018,255.73554370000056,255.73554370000056,256.1028718999987,z,1,0.5396060999992187,None,1.0195039607600527,256.1037050999985,256.1190585000004,257.6597963999993,257.11951190000036,,,,,110133,001,2025-03-08_17h38.14.901,stroop,2024.2.4,60.02098333615259,2025-03-08 17h38.20.313674 -0800,
test,inconsistent,59,yellow,green,word,z,800,2000,51,51,0,z,1,0.5996180000001914,None,0,51,51,58,257.6597963999993,,,,,,,,,257.3586719999985,257.6597963999993,257.6597963999993,257.6597963999993,257.6597963999993,257.8356205000018,257.8356205000018,258.26991329999873,z,1,0.5996180000001914,None,3.386099831738723,258.270706700001,258.2856624999986,262.1978197999997,261.6532284999994,,,,,110133,001,2025-03-08_17h38.14.901,stroop,2024.2.4,60.02098333615259,2025-03-08 17h38.20.313674 -0800,
test,inconsistent,16,red,green,word,z,800,2000,52,52,0,z,1,1.0322266000002855,None,0,52,52,15,262.1978197999997,,,,,,,,,261.98029999999926,262.1978197999997,262.1978197999997,262.1978197999997,262.1978197999997,262.35299320000195,262.35299320000195,263.23695470000166,z,1,1.0322266000002855,None,5.524556660274829,263.2377962999999,263.2529968000017,269.13815500000055,268.75389240000004,,,,,110133,001,2025-03-08_17h38.14.901,stroop,2024.2.4,60.02098333615259,2025-03-08 17h38.20.313674 -0800,
test,consistent,7,green,green,word,m,800,2000,53,53,0,m,1,0.7027129999987665,None,0,53,53,6,269.13815500000055,,,,,,,,,269.0385900000001,269.13815500000055,269.13815500000055,,269.13815500000055,269.4707305000011,269.4707305000011,269.8545646999992,m,1,0.7027129999987665,None,1.9965866371646985,269.85548729999937,269.87054250000074,272.39874110000164,271.837419200001,,,,,110133,001,2025-03-08_17h38.14.901,stroop,2024.2.4,60.02098333615259,2025-03-08 17h38.20.313674 -0800,
test,consistent,49,yellow,yellow,word,m,800,2000,54,54,0,m,1,0.6349007999997411,None,0,54,54,48,272.39874110000164,,,,,,,,,272.2542407000001,272.39874110000164,272.39874110000164,272.39874110000164,272.39874110000164,272.55364760000157,272.55364760000157,273.03814540000167,m,1,0.6349007999997411,None,1.3286727302015184,273.0392829000011,273.0538510000006,274.78022090000013,274.35441029999856,,,,,110133,001,2025-03-08_17h38.14.901,stroop,2024.2.4,60.02098333615259,2025-03-08 17h38.20.313674 -0800,
test,consistent,47,blue,blue,word,m,800,2000,55,55,0,m,1,0.6065608000026259,None,0,55,55,46,274.78022090000013,,,,,,,,,274.5616880999987,274.78022090000013,274.78022090000013,274.78022090000013,274.78022090000013,275.07109969999874,275.07109969999874,275.3882584999992,m,1,0.6065608000026259,None,3.591979491253843,275.3890567999988,275.4045674000008,279.58879389999856,278.97172800000044,,,,,110133,001,2025-03-08_17h38.14.901,stroop,2024.2.4,60.02098333615259,2025-03-08 17h38.20.313674 -0800,
test,inconsistent,32,orange,green,word,z,800,2000,56,56,0,z,1,0.5663305999987642,None,0,56,56,31,279.58879389999856,,,,,,,,,279.2908903999996,279.58879389999856,279.58879389999856,279.58879389999856,279.58879389999856,279.67112850000194,279.67112850000194,280.17201990000103,z,1,0.5663305999987642,None,2.561238933636146,280.17285919999995,280.18794379999963,283.3683724000002,282.7212838000014,,,,,110133,001,2025-03-08_17h38.14.901,stroop,2024.2.4,60.02098333615259,2025-03-08 17h38.20.313674 -0800,
test,inconsistent,37,red,green,word,z,800,2000,57,57,0,z,1,0.6329893999973137,None,0,57,57,36,283.3683724000002,,,,,,,,,283.06733579999855,283.3683724000002,283.3683724000002,283.3683724000002,283.3683724000002,283.42104649999965,283.42104649999965,284.00514309999926,z,1,0.6329893999973137,None,4.859349576113689,284.0059046999995,284.0211860999989,289.4939849000002,288.8558005999985,,,,,110133,001,2025-03-08_17h38.14.901,stroop,2024.2.4,60.02098333615259,2025-03-08 17h38.20.313674 -0800,
test,consistent,23,green,green,word,m,800,2000,58,58,0,m,1,0.610948699999426,None,0,58,58,22,289.4939849000002,,,,,,,,,289.18996569999945,289.4939849000002,289.4939849000002,289.4939849000002,289.4939849000002,289.5554779999984,289.5554779999984,290.1062587000015,m,1,0.610948699999426,None,4.806061319411841,290.10717990000194,290.12217090000195,295.5821278000003,294.90656880000097,,,,,110133,001,2025-03-08_17h38.14.901,stroop,2024.2.4,60.02098333615259,2025-03-08 17h38.20.313674 -0800,
test,consistent,38,blue,blue,word,m,800,2000,59,0,1,m,1,0.5399642000011227,None,1,0,59,37,295.5821278000003,,,,,,,,,295.28217399999994,295.5821278000003,295.5821278000003,295.5821278000003,295.5821278000003,295.62267209999845,295.62267209999845,296.1235775999994,m,1,0.5399642000011227,None,4.132389574009899,296.1242568000016,296.1397656000008,300.80397430000085,300.2403349999986,,,,,110133,001,2025-03-08_17h38.14.901,stroop,2024.2.4,60.02098333615259,2025-03-08 17h38.20.313674 -0800,
test,inconsistent,25,red,blue,word,z,800,2000,60,1,1,z,1,0.5866889000026276,None,1,1,60,24,300.80397430000085,,,,,,,,,300.63819760000115,300.80397430000085,300.80397430000085,300.80397430000085,300.80397430000085,300.95683479999934,300.95683479999934,301.40732130000106,z,1,0.5866889000026276,None,4.098076295984679,301.4081612000009,301.42334459999984,306.0677489000009,305.4907896000004,,,,,110133,001,2025-03-08_17h38.14.901,stroop,2024.2.4,60.02098333615259,2025-03-08 17h38.20.313674 -0800,
test,inconsistent,44,green,red,word,z,800,2000,61,2,1,z,1,0.6161154000001261,None,1,2,61,43,306.0677489000009,,,,,,,,,305.77065909999874,306.0677489000009,306.0677489000009,306.0677489000009,306.0677489000009,306.1908079999994,306.1908079999994,306.69148660000064,z,1,0.6161154000001261,None,5.237251575159505,306.69251689999874,306.70717389999845,312.36807880000197,311.92507190000106,,,,,110133,001,2025-03-08_17h38.14.901,stroop,2024.2.4,60.02098333615259,2025-03-08 17h38.20.313674 -0800,
test,inconsistent,55,green,yellow,word,z,800,2000,62,3,1,m,0,0.5898733000030916,None,1,3,62,54,312.36807880000197,,,,,,,,,312.3053469000006,312.36807880000197,312.36807880000197,,312.36807880000197,312.64150190000146,312.64150190000146,312.97481329999937,m,0,0.5898733000030916,None,2.740400420262252,312.97539419999885,312.9908596999994,316.26960079999844,315.70835330000045,,,,,110133,001,2025-03-08_17h38.14.901,stroop,2024.2.4,60.02098333615259,2025-03-08 17h38.20.313674 -0800,
test,inconsistent,50,yellow,green,word,z,800,2000,63,4,1,z,1,0.7459638000000268,None,1,4,63,49,316.26960079999844,,,,,,,,,316.0112114000003,316.26960079999844,316.26960079999844,316.26960079999844,316.26960079999844,316.4082253999986,316.4082253999986,317.0252661000013,z,1,0.7459638000000268,None,2.29794459509313,317.02602449999904,317.0416550000009,319.988440000001,319.30909690000044,,,,,110133,001,2025-03-08_17h38.14.901,stroop,2024.2.4,60.02098333615259,2025-03-08 17h38.20.313674 -0800,
test,consistent,46,yellow,yellow,word,m,800,2000,64,5,1,m,1,0.5460559999992256,None,1,5,64,45,319.988440000001,,,,,,,,,319.58529400000043,319.988440000001,319.988440000001,319.988440000001,319.988440000001,319.99502719999873,319.99502719999873,320.54270729999917,m,1,0.5460559999992256,None,1.8741148723661936,320.54357789999995,320.5584869000013,323.1820982999998,322.40907119999974,,,,,110133,001,2025-03-08_17h38.14.901,stroop,2024.2.4,60.02098333615259,2025-03-08 17h38.20.313674 -0800,
test,consistent,34,green,green,word,m,800,2000,65,6,1,m,1,0.6146826000003784,None,1,6,65,33,323.1820982999998,,,,,,,,,322.87986589999855,323.1820982999998,323.1820982999998,323.1820982999998,323.1820982999998,323.18543919999865,323.18543919999865,323.80965450000076,m,1,0.6146826000003784,None,3.355073934281008,323.8105590999985,323.8254256,327.89760620000015,327.1596000999998,,,,,110133,001,2025-03-08_17h38.14.901,stroop,2024.2.4,60.02098333615259,2025-03-08 17h38.20.313674 -0800,
test,consistent,1,red,red,word,m,800,2000,66,7,1,m,1,0.6272704000002705,None,1,7,66,0,327.89760620000015,,,,,,,,,327.4967809000009,327.89760620000015,327.89760620000015,327.89760620000015,327.89760620000015,327.90052320000177,327.90052320000177,328.5266964000002,m,1,0.6272704000002705,None,5.8899146572720635,328.52743980000014,328.542433300001,335.1610771000014,334.41073329999927,,,,,110133,001,2025-03-08_17h38.14.901,stroop,2024.2.4,60.02098333615259,2025-03-08 17h38.20.313674 -0800,
test,inconsistent,26,green,yellow,word,z,800,2000,67,8,1,z,1,0.5284036999983073,None,1,8,67,25,335.1610771000014,,,,,,,,,334.86013939999975,335.1610771000014,335.1610771000014,335.1610771000014,335.1610771000014,335.1642180000017,335.1642180000017,335.69409019999875,z,1,0.5284036999983073,None,4.3304569141615765,335.69489890000114,335.70985819999987,340.4769746999991,340.0106659000012,,,,,110133,001,2025-03-08_17h38.14.901,stroop,2024.2.4,60.02098333615259,2025-03-08 17h38.20.313674 -0800,
test,inconsistent,5,orange,blue,word,z,800,2000,68,9,1,z,1,0.7489298999971652,None,1,9,68,4,340.4769746999991,,,,,,,,,340.3759304999985,340.4769746999991,340.4769746999991,,340.4769746999991,340.7108646000015,340.7108646000015,341.22832570000173,z,1,0.7489298999971652,None,3.743749555170033,341.2291796999998,341.24368740000136,345.47804520000136,344.96196730000156,,,,,110133,001,2025-03-08_17h38.14.901,stroop,2024.2.4,60.02098333615259,2025-03-08 17h38.20.313674 -0800,
test,consistent,41,green,green,word,m,800,2000,69,10,1,m,1,0.6217663000024913,None,1,10,69,40,345.47804520000136,,,,,,,,,345.3142896999998,345.47804520000136,345.47804520000136,345.47804520000136,345.47804520000136,345.67764779999925,345.67764779999925,346.1120422999993,m,1,0.6217663000024913,None,5.020353160593474,346.1129480999989,346.1275945000016,351.6473760000008,351.1285124999995,,,,,110133,001,2025-03-08_17h38.14.901,stroop,2024.2.4,60.02098333615259,2025-03-08 17h38.20.313674 -0800,
test,inconsistent,29,green,blue,word,z,800,2000,70,11,1,z,1,0.7283004999990226,None,1,11,70,28,351.6473760000008,,,,,,,,,351.3849166,351.6473760000008,351.6473760000008,351.6473760000008,351.6473760000008,351.8451055000005,351.8451055000005,352.37918770000033,z,1,0.7283004999990226,None,5.722967399951496,352.37997290000203,352.3952019999997,358.7811404999993,358.09626410000055,,,,,110133,001,2025-03-08_17h38.14.901,stroop,2024.2.4,60.02098333615259,2025-03-08 17h38.20.313674 -0800,
test,consistent,51,red,red,word,m,800,2000,71,12,1,m,1,0.4821735000004992,None,1,12,71,50,358.7811404999993,,,,,,,,,358.38406810000015,358.7811404999993,358.7811404999993,358.7811404999993,358.7811404999993,358.7843514999986,358.7843514999986,359.2798296000001,m,1,0.4821735000004992,None,4.323648348679973,359.2806006999999,359.2958675000009,364.2037186999987,363.59687080000003,,,,,110133,001,2025-03-08_17h38.14.901,stroop,2024.2.4,60.02098333615259,2025-03-08 17h38.20.313674 -0800,
test,inconsistent,39,red,yellow,word,z,800,2000,72,13,1,z,1,0.5126648999976169,None,1,13,72,38,364.2037186999987,,,,,,,,,364.10144950000176,364.2037186999987,364.2037186999987,,364.2037186999987,364.3132957000016,364.3132957000016,364.7305048999988,z,1,0.5126648999976169,None,5.399204233045008,364.73143020000134,364.74644400000034,370.6359515000004,370.1140341999999,,,,,110133,001,2025-03-08_17h38.14.901,stroop,2024.2.4,60.02098333615259,2025-03-08 17h38.20.313674 -0800,
test,inconsistent,42,green,yellow,word,z,800,2000,73,14,1,z,1,0.5817381000015303,None,1,14,73,41,370.6359515000004,,,,,,,,,370.4911264000002,370.6359515000004,370.6359515000004,370.6359515000004,370.6359515000004,370.8297577000012,370.8297577000012,371.2308671999999,z,1,0.5817381000015303,None,4.814390213947824,371.2316562999986,371.246972500001,376.3965027000013,376.0312348000007,,,,,110133,001,2025-03-08_17h38.14.901,stroop,2024.2.4,60.02098333615259,2025-03-08 17h38.20.313674 -0800,
test,inconsistent,14,yellow,blue,word,z,800,2000,74,15,1,z,1,0.5996715000001132,None,1,15,74,13,376.3965027000013,,,,,,,,,376.24980850000065,376.3965027000013,376.3965027000013,376.3965027000013,376.3965027000013,376.7472677000005,376.7472677000005,376.9978818999989,z,1,0.5996715000001132,None,5.992311418951058,376.9987245000011,377.0139440999992,383.3426948000015,382.9818636000018,,,,,110133,001,2025-03-08_17h38.14.901,stroop,2024.2.4,60.02098333615259,2025-03-08 17h38.20.313674 -0800,
test,inconsistent,13,purple,red,word,z,800,2000,75,16,1,z,1,0.4960707000027469,None,1,16,75,12,383.3426948000015,,,,,,,,,383.1959260000003,383.3426948000015,383.3426948000015,383.3426948000015,383.3426948000015,383.6981569999989,383.6981569999989,383.8490328000007,z,1,0.4960707000027469,None,5.6038281530591805,383.84977380000055,383.86451339999985,389.7091704000013,389.4492448000019,,,,,110133,001,2025-03-08_17h38.14.901,stroop,2024.2.4,60.02098333615259,2025-03-08 17h38.20.313674 -0800,
test,inconsistent,16,red,green,word,z,800,2000,76,17,1,z,1,0.6126245000014023,None,1,17,76,15,389.7091704000013,,,,,,,,,389.6775052000012,389.7091704000013,389.7091704000013,,389.7091704000013,390.165927500002,390.165927500002,390.33321910000086,z,1,0.6126245000014023,None,5.990420580549113,390.33427609999853,390.34882669999934,396.85632049999913,396.3165098999998,,,,,110133,001,2025-03-08_17h38.14.901,stroop,2024.2.4,60.02098333615259,2025-03-08 17h38.20.313674 -0800,
test,consistent,18,red,red,word,m,800,2000,77,18,1,m,1,0.5109503000021505,None,1,18,77,17,396.85632049999913,,,,,,,,,396.55302930000107,396.85632049999913,396.85632049999913,396.85632049999913,396.85632049999913,397.0327376999994,397.0327376999994,397.3834749999987,m,1,0.5109503000021505,None,1.8136068060368777,397.3843455999995,397.39950769999996,399.8670419000009,399.18312589999914,,,,,110133,001,2025-03-08_17h38.14.901,stroop,2024.2.4,60.02098333615259,2025-03-08 17h38.20.313674 -0800,
test,inconsistent,10,green,yellow,word,z,800,2000,78,19,1,z,1,0.5077175000005809,None,1,19,78,9,399.8670419000009,,,,,,,,,399.5672029999987,399.8670419000009,399.8670419000009,399.8670419000009,399.8670419000009,399.87037280000004,399.87037280000004,400.38355669999873,z,1,0.5077175000005809,None,4.604452078618071,400.3843515000008,400.4001500000013,405.5296378999992,404.98371640000187,,,,,110133,001,2025-03-08_17h38.14.901,stroop,2024.2.4,60.02098333615259,2025-03-08 17h38.20.313674 -0800,
test,inconsistent,22,red,yellow,word,z,800,2000,79,20,1,z,1,0.5245799999975134,None,1,20,79,21,405.5296378999992,,,,,,,,,405.2963013000008,405.5296378999992,405.5296378999992,405.5296378999992,405.5296378999992,405.6834624000003,405.6834624000003,406.06797500000175,z,1,0.5245799999975134,None,4.371013592528857,406.0687935999995,406.0834906000018,410.96223380000083,410.4345691000017,,,,,110133,001,2025-03-08_17h38.14.901,stroop,2024.2.4,60.02098333615259,2025-03-08 17h38.20.313674 -0800,
test,inconsistent,33,yellow,green,word,z,800,2000,80,21,1,z,1,0.5073357999972359,None,1,21,80,32,410.96223380000083,,,,,,,,,410.7439105000012,410.96223380000083,410.96223380000083,410.96223380000083,410.96223380000083,411.1509127999998,411.1509127999998,411.4852862000007,z,1,0.5073357999972359,None,1.345816082973458,411.4862257999994,411.5009835000019,413.35250910000104,412.81790080000064,,,,,110133,001,2025-03-08_17h38.14.901,stroop,2024.2.4,60.02098333615259,2025-03-08 17h38.20.313674 -0800,
test,consistent,28,yellow,yellow,word,m,800,2000,81,22,1,z,0,0.6092999000029522,None,1,22,81,27,413.35250910000104,,,,,,,,,413.1160821000012,413.35250910000104,413.35250910000104,413.35250910000104,413.35250910000104,413.5176981000004,413.5176981000004,413.9684852999999,z,0,0.6092999000029522,None,4.545712539212854,413.96922410000116,413.9844069999999,419.14871810000113,418.502015500002,,,,,110133,001,2025-03-08_17h38.14.901,stroop,2024.2.4,60.02098333615259,2025-03-08 17h38.20.313674 -0800,
test,inconsistent,58,yellow,red,word,z,800,2000,82,23,1,z,1,0.6115432000005967,None,1,23,82,57,419.14871810000113,,,,,,,,,418.84348460000183,419.14871810000113,419.14871810000113,419.14871810000113,419.14871810000113,419.2184367000009,419.2184367000009,419.7688519000003,z,1,0.6115432000005967,None,1.1866192750334812,419.7697241999995,419.78520280000157,421.48706609999863,420.95219649999854,,,,,110133,001,2025-03-08_17h38.14.901,stroop,2024.2.4,60.02098333615259,2025-03-08 17h38.20.313674 -0800,
test,inconsistent,59,yellow,green,word,z,800,2000,83,24,1,z,1,0.5942035000007309,None,1,24,83,58,421.48706609999863,,,,,,,,,421.2654819999989,421.48706609999863,421.48706609999863,421.48706609999863,421.48706609999863,421.6682776000016,421.6682776000016,422.08548489999885,z,1,0.5942035000007309,None,3.046579660566601,422.0860371999988,422.10181720000037,425.651868500001,425.1188905000017,,,,,110133,001,2025-03-08_17h38.14.901,stroop,2024.2.4,60.02098333615259,2025-03-08 17h38.20.313674 -0800,
test,consistent,40,yellow,yellow,word,m,800,2000,84,25,1,m,1,0.7206474000013259,None,1,25,84,39,425.651868500001,,,,,,,,,425.34758090000105,425.651868500001,425.651868500001,425.651868500001,425.651868500001,425.8187171999998,425.8187171999998,426.3862233,m,1,0.7206474000013259,None,1.9005655849599532,426.38694380000015,426.40211310000086,428.9585926,428.286450399999,,,,,110133,001,2025-03-08_17h38.14.901,stroop,2024.2.4,60.02098333615259,2025-03-08 17h38.20.313674 -0800,
test,inconsistent,15,yellow,red,word,z,800,2000,85,26,1,z,1,0.5256453000001784,None,1,26,85,14,428.9585926,,,,,,,,,428.65579979999893,428.9585926,428.9585926,428.9585926,428.9585926,429.00232210000104,429.00232210000104,429.4867177999986,z,1,0.5256453000001784,None,5.465938612301933,429.4876336999987,429.5023661000014,435.6774570999987,434.93699729999935,,,,,110133,001,2025-03-08_17h38.14.901,stroop,2024.2.4,60.02098333615259,2025-03-08 17h38.20.313674 -0800,
test,inconsistent,24,blue,green,word,z,800,2000,86,27,1,z,1,0.6335436000008485,None,1,27,86,23,435.6774570999987,,,,,,,,,435.27818470000057,435.6774570999987,435.6774570999987,435.6774570999987,435.6774570999987,435.6807243000003,435.6807243000003,436.3205065000002,z,1,0.6335436000008485,None,5.924289014569143,436.3213227000015,436.33670229999916,442.74708770000143,442.237821499999,,,,,110133,001,2025-03-08_17h38.14.901,stroop,2024.2.4,60.02098333615259,2025-03-08 17h38.20.313674 -0800,
test,consistent,43,green,green,word,m,800,2000,87,28,1,z,0,0.4881870999997773,None,1,28,87,42,442.74708770000143,,,,,,,,,442.64941439999893,442.74708770000143,442.74708770000143,,442.74708770000143,442.9542580999987,442.9542580999987,443.2382351000015,z,0,0.4881870999997773,None,1.8083065657854571,443.23921749999863,443.2544290000005,445.65014900000097,445.03808339999887,,,,,110133,001,2025-03-08_17h38.14.901,stroop,2024.2.4,60.02098333615259,2025-03-08 17h38.20.313674 -0800,
test,consistent,35,red,red,word,m,800,2000,88,29,1,m,1,0.6106118999996397,None,1,29,88,34,445.65014900000097,,,,,,,,,445.35227250000025,445.65014900000097,445.65014900000097,445.65014900000097,445.65014900000097,445.7376199999999,445.7376199999999,446.2718074000004,m,1,0.6106118999996397,None,5.678199162914753,446.27260979999846,446.2875028000017,452.5902142999985,451.9386091000015,,,,,110133,001,2025-03-08_17h38.14.901,stroop,2024.2.4,60.02098333615259,2025-03-08 17h38.20.313674 -0800,
test,inconsistent,11,green,red,word,z,800,2000,89,30,1,z,1,0.6043806000016048,None,1,30,89,10,452.5902142999985,,,,,,,,,452.29493060000095,452.5902142999985,452.5902142999985,452.5902142999985,452.5902142999985,452.63821520000056,452.63821520000056,453.20580690000133,z,1,0.6043806000016048,None,2.447970565147317,453.20655629999965,453.22176989999934,456.30847070000164,455.6391447999995,,,,,110133,001,2025-03-08_17h38.14.901,stroop,2024.2.4,60.02098333615259,2025-03-08 17h38.20.313674 -0800,
test,inconsistent,8,black,yellow,word,z,800,2000,90,31,1,z,1,0.6602706000012404,None,1,31,90,7,456.30847070000164,,,,,,,,,456.0100127000005,456.30847070000164,456.30847070000164,456.30847070000164,456.30847070000164,456.3553213999985,456.3553213999985,456.97284220000074,z,1,0.6602706000012404,None,5.261676184987735,456.9738733999984,456.9885785000006,462.84719229999973,462.2231494000007,,,,,110133,001,2025-03-08_17h38.14.901,stroop,2024.2.4,60.02098333615259,2025-03-08 17h38.20.313674 -0800,
test,consistent,57,yellow,yellow,word,m,800,2000,91,32,1,m,1,0.733290099997248,None,1,32,91,56,462.84719229999973,,,,,,,,,462.54840930000137,462.84719229999973,462.84719229999973,462.84719229999973,462.84719229999973,462.93922400000156,462.93922400000156,463.5899270000009,m,1,0.733290099997248,None,2.4978628653380976,463.590734100002,463.6060189999989,466.5091431000001,466.0733349000002,,,,,110133,001,2025-03-08_17h38.14.901,stroop,2024.2.4,60.02098333615259,2025-03-08 17h38.20.313674 -0800,
test,inconsistent,4,red,green,word,z,800,2000,92,33,1,z,1,0.6381586999996216,None,1,33,92,3,466.5091431000001,,,,,,,,,466.4086505999985,466.5091431000001,466.5091431000001,,466.5091431000001,466.773075000001,466.773075000001,467.1568963999998,z,1,0.6381586999996216,None,1.3559840110151185,467.1575739,467.1730759999991,469.21245550000094,468.50680999999895,,,,,110133,001,2025-03-08_17h38.14.901,stroop,2024.2.4,60.02098333615259,2025-03-08 17h38.20.313674 -0800,
test,inconsistent,6,red,yellow,word,z,800,2000,93,34,1,None,0,,,1,34,93,5,469.21245550000094,,,,,,,,,468.9101922000009,469.21245550000094,469.21245550000094,469.21245550000094,469.21245550000094,469.2157197999986,469.2157197999986,473.4909327999994,None,0,,,3.897098603054676,473.49186349999945,473.5072489999984,478.07590770000024,477.37458759999936,473.5072489999984,,,,110133,001,2025-03-08_17h38.14.901,stroop,2024.2.4,60.02098333615259,2025-03-08 17h38.20.313674 -0800,
test,consistent,49,yellow,yellow,word,m,800,2000,94,35,1,m,1,0.7040849000004528,None,1,35,94,48,478.07590770000024,,,,,,,,,477.77854149999985,478.07590770000024,478.07590770000024,478.07590770000024,478.07590770000024,478.07897270000103,478.07897270000103,478.7914587999985,m,1,0.7040849000004528,None,2.655158904753946,478.79216710000037,478.8073516000004,482.0984754000019,481.44151749999946,,,,,110133,001,2025-03-08_17h38.14.901,stroop,2024.2.4,60.02098333615259,2025-03-08 17h38.20.313674 -0800,
test,consistent,54,green,green,word,m,800,2000,95,36,1,m,1,0.7382336000009673,None,1,36,95,53,482.0984754000019,,,,,,,,,481.8019447000006,482.0984754000019,482.0984754000019,482.0984754000019,482.0984754000019,482.15781830000196,482.15781830000196,482.8419271999992,m,1,0.7382336000009673,None,3.6716024586296223,482.8427410000004,482.8581645000013,487.05253820000144,486.5086335999986,,,,,110133,001,2025-03-08_17h38.14.901,stroop,2024.2.4,60.02098333615259,2025-03-08 17h38.20.313674 -0800,
test,inconsistent,21,black,yellow,word,z,800,2000,96,37,1,z,1,0.5414223999978276,None,1,37,96,20,487.05253820000144,,,,,,,,,486.8313057999985,487.05253820000144,487.05253820000144,487.05253820000144,487.05253820000144,487.20840970000063,487.20840970000063,487.60926069999914,z,1,0.5414223999978276,None,2.486876400186895,487.61006089999864,487.62488080000185,490.54179020000083,490.09244240000044,,,,,110133,001,2025-03-08_17h38.14.901,stroop,2024.2.4,60.02098333615259,2025-03-08 17h38.20.313674 -0800,
test,inconsistent,52,red,green,word,z,800,2000,97,38,1,z,1,0.6450154000012844,None,1,38,97,51,490.54179020000083,,,,,,,,,490.32092209999973,490.54179020000083,490.54179020000083,490.54179020000083,490.54179020000083,490.8085981000004,490.8085981000004,491.19291050000174,z,1,0.6450154000012844,None,1.086175105219246,491.1937136000015,491.20879480000076,492.842681099999,492.2759650000007,,,,,110133,001,2025-03-08_17h38.14.901,stroop,2024.2.4,60.02098333615259,2025-03-08 17h38.20.313674 -0800,
test,consistent,23,green,green,word,m,800,2000,98,39,1,m,1,0.6178482000032091,None,1,39,98,22,492.842681099999,,,,,,,,,492.538964899999,492.842681099999,492.842681099999,492.842681099999,492.842681099999,492.99195319999853,492.99195319999853,493.47599510000146,m,1,0.6178482000032091,None,2.2860967602370748,493.47712669999964,493.49219770000127,496.28965009999956,495.759690400002,,,,,110133,001,2025-03-08_17h38.14.901,stroop,2024.2.4,60.02098333615259,2025-03-08 17h38.20.313674 -0800,
test,inconsistent,30,blue,red,word,z,800,2000,99,40,1,z,1,0.5015708999999333,None,1,40,99,29,496.28965009999956,,,,,,,,,496.0644968000015,496.28965009999956,496.28965009999956,496.28965009999956,496.28965009999956,496.47585919999983,496.47585919999983,496.7931712999998,z,1,0.5015708999999333,None,4.333436542634918,496.793959300001,496.8090622999989,501.6484612999993,501.1261851999989,,,,,110133,001,2025-03-08_17h38.14.901,stroop,2024.2.4,60.02098333615259,2025-03-08 17h38.20.313674 -0800,
test,inconsistent,37,red,green,word,z,800,2000,100,41,1,z,1,0.6536754999979166,None,1,41,100,36,501.6484612999993,,,,,,,,,501.3527617,501.6484612999993,501.6484612999993,501.6484612999993,501.6484612999993,501.82643969999845,501.82643969999845,502.3103144000015,z,1,0.6536754999979166,None,2.9754871404528265,502.31104649999907,502.3264903999989,505.75821500000166,505.2772933999986,,,,,110133,001,2025-03-08_17h38.14.901,stroop,2024.2.4,60.02098333615259,2025-03-08 17h38.20.313674 -0800,
test,consistent,7,green,green,word,m,800,2000,101,42,1,m,1,0.7604162000025099,None,1,42,101,6,505.75821500000166,,,,,,,,,505.6584451999988,505.75821500000166,505.75821500000166,,505.75821500000166,505.99375130000044,505.99375130000044,506.5279014000007,m,1,0.7604162000025099,None,3.7969499537154565,506.528704700002,506.54357159999927,510.92922330000147,510.311011400001,,,,,110133,001,2025-03-08_17h38.14.901,stroop,2024.2.4,60.02098333615259,2025-03-08 17h38.20.313674 -0800,
test,inconsistent,17,yellow,green,word,z,800,2000,102,43,1,z,1,0.5431317000002309,None,1,43,102,16,510.92922330000147,,,,,,,,,510.6985452000008,510.92922330000147,510.92922330000147,510.92922330000147,510.92922330000147,511.02744950000124,511.02744950000124,511.4780815999984,z,1,0.5431317000002309,None,2.8957458782434795,511.47906299999886,511.4940572000014,514.9495907000019,514.3614992000003,,,,,110133,001,2025-03-08_17h38.14.901,stroop,2024.2.4,60.02098333615259,2025-03-08 17h38.20.313674 -0800,
test,consistent,36,red,red,word,m,800,2000,103,44,1,m,1,0.47549870000148076,None,1,44,103,35,514.9495907000019,,,,,,,,,514.6499605999998,514.9495907000019,514.9495907000019,514.9495907000019,514.9495907000019,515.0611414000014,515.0611414000014,515.4286229999998,m,1,0.47549870000148076,None,1.1242888714024526,515.4293182000001,515.4444891999992,517.1142585000016,516.5449948999994,,,,,110133,001,2025-03-08_17h38.14.901,stroop,2024.2.4,60.02098333615259,2025-03-08 17h38.20.313674 -0800,
test,inconsistent,27,green,red,word,z,800,2000,104,45,1,z,1,0.6170141999973566,None,1,45,104,26,517.1142585000016,,,,,,,,,516.8917895000013,517.1142585000016,517.1142585000016,517.1142585000016,517.1142585000016,517.2443830000011,517.2443830000011,517.7453523000004,z,1,0.6170141999973566,None,4.891072193028804,517.7463013999986,517.7613147000011,523.0508730000001,522.6292087000002,,,,,110133,001,2025-03-08_17h38.14.901,stroop,2024.2.4,60.02098333615259,2025-03-08 17h38.20.313674 -0800,
test,inconsistent,2,yellow,green,word,z,800,2000,105,46,1,z,1,0.6783060000016121,None,1,46,105,1,523.0508730000001,,,,,,,,,522.8221883000006,523.0508730000001,523.0508730000001,523.0508730000001,523.0508730000001,523.3453984000007,523.3453984000007,523.7460773999992,z,1,0.6783060000016121,None,4.893475725159005,523.7468869000004,523.7619239999985,529.1015044999986,528.6290724999999,,,,,110133,001,2025-03-08_17h38.14.901,stroop,2024.2.4,60.02098333615259,2025-03-08 17h38.20.313674 -0800,
test,inconsistent,32,orange,green,word,z,800,2000,106,47,1,z,1,0.5236010999979044,None,1,47,106,31,529.1015044999986,,,,,,,,,528.8698808000008,529.1015044999986,529.1015044999986,529.1015044999986,529.1015044999986,529.3290995999996,529.3290995999996,529.6300780999991,z,1,0.5236010999979044,None,5.5890743359584105,529.6312608000007,529.6458948,535.7798172000003,535.2135587000012,,,,,110133,001,2025-03-08_17h38.14.901,stroop,2024.2.4,60.02098333615259,2025-03-08 17h38.20.313674 -0800,
test,inconsistent,19,green,red,word,z,800,2000,107,48,1,z,1,0.5993434000010893,None,1,48,107,18,535.7798172000003,,,,,,,,,535.5247010999992,535.7798172000003,535.7798172000003,535.7798172000003,535.7798172000003,535.9301249000018,535.9301249000018,536.3804902000011,z,1,0.5993434000010893,None,1.9842790033659425,536.3812290999995,536.3964403999998,538.7473062999998,538.3638113999987,,,,,110133,001,2025-03-08_17h38.14.901,stroop,2024.2.4,60.02098333615259,2025-03-08 17h38.20.313674 -0800,
test,inconsistent,31,yellow,red,word,z,800,2000,108,49,1,z,1,0.6685203999986697,None,1,49,108,30,538.7473062999998,,,,,,,,,538.7121317000019,538.7473062999998,538.7473062999998,,538.7473062999998,539.0636202999995,539.0636202999995,539.4312324999992,z,1,0.6685203999986697,None,1.1196572023252145,539.4321783000014,539.4466838000008,541.1232153000019,540.5472456999996,,,,,110133,001,2025-03-08_17h38.14.901,stroop,2024.2.4,60.02098333615259,2025-03-08 17h38.20.313674 -0800,
test,inconsistent,20,red,green,word,z,800,2000,109,50,1,z,1,0.5527629000025627,None,1,50,109,19,541.1232153000019,,,,,,,,,540.8264602999989,541.1232153000019,541.1232153000019,541.1232153000019,541.1232153000019,541.2471111999985,541.2471111999985,541.6811515000009,z,1,0.5527629000025627,None,2.5091895118166225,541.6818859999985,541.6973044000006,544.8172311999988,544.1808353999986,,,,,110133,001,2025-03-08_17h38.14.901,stroop,2024.2.4,60.02098333615259,2025-03-08 17h38.20.313674 -0800,
test,consistent,45,red,red,word,m,800,2000,110,51,1,m,1,0.6117334000009578,None,1,51,110,44,544.8172311999988,,,,,,,,,544.5138172000006,544.8172311999988,544.8172311999988,544.8172311999988,544.8172311999988,544.8806490999996,544.8806490999996,545.4311626000017,m,1,0.6117334000009578,None,4.058450742248028,545.4320417000017,545.4475048999993,550.0248763000018,549.481453299999,,,,,110133,001,2025-03-08_17h38.14.901,stroop,2024.2.4,60.02098333615259,2025-03-08 17h38.20.313674 -0800,
test,inconsistent,9,red,blue,word,z,800,2000,111,52,1,z,1,0.5288361000020814,None,1,52,111,8,550.0248763000018,,,,,,,,,549.8550575000008,550.0248763000018,550.0248763000018,550.0248763000018,550.0248763000018,550.1810642000019,550.1810642000019,550.5653977000002,z,1,0.5288361000020814,None,3.4692509713942035,550.5663977000004,550.5810691000006,554.497379299999,554.0318415000002,,,,,110133,001,2025-03-08_17h38.14.901,stroop,2024.2.4,60.02098333615259,2025-03-08 17h38.20.313674 -0800,
test,consistent,47,blue,blue,word,m,800,2000,112,53,1,m,1,0.6983306999973138,None,1,53,112,46,554.497379299999,,,,,,,,,554.2765639999998,554.497379299999,554.497379299999,554.497379299999,554.497379299999,554.7483261000016,554.7483261000016,555.1988240999999,m,1,0.6983306999973138,None,4.051346312698858,555.1997160999999,555.2147738999993,559.8561680999992,559.2493403000008,,,,,110133,001,2025-03-08_17h38.14.901,stroop,2024.2.4,60.02098333615259,2025-03-08 17h38.20.313674 -0800,
test,inconsistent,48,yellow,red,word,z,800,2000,113,54,1,z,1,0.551255400001537,None,1,54,113,47,559.8561680999992,,,,,,,,,559.5611930999985,559.8561680999992,559.8561680999992,559.8561680999992,559.8561680999992,559.9656968000018,559.9656968000018,560.4164516000019,z,1,0.551255400001537,None,2.1685402785739534,560.4171564999997,560.4320641000013,563.2653274000004,562.5821628000012,,,,,110133,001,2025-03-08_17h38.14.901,stroop,2024.2.4,60.02098333615259,2025-03-08 17h38.20.313674 -0800,
test,inconsistent,56,green,red,word,z,800,2000,114,55,1,z,1,0.6298501999990549,None,1,55,114,55,563.2653274000004,,,,,,,,,562.9674281000007,563.2653274000004,563.2653274000004,563.2653274000004,563.2653274000004,563.268314500001,563.268314500001,563.8998797999993,z,1,0.6298501999990549,None,3.539313923859064,563.9006754000002,563.9160765999986,568.0424482000017,567.4331071999986,,,,,110133,001,2025-03-08_17h38.14.901,stroop,2024.2.4,60.02098333615259,2025-03-08 17h38.20.313674 -0800,
test,consistent,12,yellow,yellow,word,m,800,2000,115,56,1,m,1,0.813380399999005,None,1,56,115,11,568.0424482000017,,,,,,,,,567.7847264000011,568.0424482000017,568.0424482000017,568.0424482000017,568.0424482000017,568.1493144999986,568.1493144999986,568.867184499999,m,1,0.813380399999005,None,3.2816970469252995,568.868022900002,568.8830237000002,572.6546129999988,572.1338232000016,,,,,110133,001,2025-03-08_17h38.14.901,stroop,2024.2.4,60.02098333615259,2025-03-08 17h38.20.313674 -0800,
test,inconsistent,53,red,yellow,word,z,800,2000,116,57,1,z,1,0.47965149999799905,None,1,57,116,52,572.6546129999988,,,,,,,,,572.4376631999985,572.6546129999988,572.6546129999988,572.6546129999988,572.6546129999988,572.8503993000013,572.8503993000013,573.1508462999991,z,1,0.47965149999799905,None,5.058274449552122,573.1519516000008,573.1668424999989,578.7771146000014,578.2010104000001,,,,,110133,001,2025-03-08_17h38.14.901,stroop,2024.2.4,60.02098333615259,2025-03-08 17h38.20.313674 -0800,
test,inconsistent,3,blue,red,word,z,800,2000,117,58,1,z,1,0.4325466000009328,None,1,58,117,2,578.7771146000014,,,,,,,,,578.474309199999,578.7771146000014,578.7771146000014,578.7771146000014,578.7771146000014,578.9008055999984,578.9008055999984,579.2178688999993,z,1,0.4325466000009328,None,4.099509341806695,579.218632600001,579.2340330000006,583.6786713000001,583.3016250000001,,,,,110133,001,2025-03-08_17h38.14.901,stroop,2024.2.4,60.02098333615259,2025-03-08 17h38.20.313674 -0800,
test,consistent,34,green,green,word,m,800,2000,118,0,2,m,1,0.5737255999993067,None,2,0,118,33,583.6786713000001,,,,,,,,,583.6112447000014,583.6786713000001,583.6786713000001,,583.6786713000001,584.0013480000016,584.0013480000016,584.269089100002,m,1,0.5737255999993067,None,4.47552706756845,584.2699184000012,584.2846745999996,589.3678206000004,588.735611600001,,,,,110133,001,2025-03-08_17h38.14.901,stroop,2024.2.4,60.02098333615259,2025-03-08 17h38.20.313674 -0800,
test,consistent,1,red,red,word,m,800,2000,119,1,2,m,1,0.5968773999993573,None,2,1,119,0,589.3678206000004,,,,,,,,,589.0705893000013,589.3678206000004,589.3678206000004,589.3678206000004,589.3678206000004,589.4514616000015,589.4514616000015,589.9691454999993,m,1,0.5968773999993573,None,2.330708220293137,589.9701566000003,589.9850655000009,592.9856658999997,592.2858639000005,,,,,110133,001,2025-03-08_17h38.14.901,stroop,2024.2.4,60.02098333615259,2025-03-08 17h38.20.313674 -0800,
test,inconsistent,59,yellow,green,word,z,800,2000,120,2,2,z,1,0.5078369000002567,None,2,2,120,58,592.9856658999997,,,,,,,,,592.6846600999997,592.9856658999997,592.9856658999997,592.9856658999997,592.9856658999997,592.989056800001,592.989056800001,593.5027334000006,z,1,0.5078369000002567,None,2.457643324559559,593.5035499000005,593.5186667999988,596.6244709999992,595.9524443000009,,,,,110133,001,2025-03-08_17h38.14.901,stroop,2024.2.4,60.02098333615259,2025-03-08 17h38.20.313674 -0800,
test,inconsistent,30,blue,red,word,z,800,2000,121,3,2,z,1,0.6212426999991294,None,2,3,121,29,596.6244709999992,,,,,,,,,596.328310500001,596.6244709999992,596.6244709999992,596.6244709999992,596.6244709999992,596.6522031999993,596.6522031999993,597.2534207999997,z,1,0.6212426999991294,None,1.848416926824762,597.2541530000017,597.2692720000014,599.4419124000015,599.0864585000018,,,,,110133,001,2025-03-08_17h38.14.901,stroop,2024.2.4,60.02098333615259,2025-03-08 17h38.20.313674 -0800,
test,consistent,18,red,red,word,m,800,2000,122,4,2,m,1,0.527859100002388,None,2,4,122,17,599.4419124000015,,,,,,,,,599.4212718999988,599.4419124000015,599.4419124000015,,599.4419124000015,599.7864087999988,599.7864087999988,599.987011199999,m,1,0.527859100002388,None,3.3178902435292574,599.9879215000001,600.0027004000003,603.8264941999987,603.3034604999993,,,,,110133,001,2025-03-08_17h38.14.901,stroop,2024.2.4,60.02098333615259,2025-03-08 17h38.20.313674 -0800,
test,inconsistent,37,red,green,word,z,800,2000,123,5,2,z,1,0.4904480000004696,None,2,5,123,36,603.8264941999987,,,,,,,,,603.5242438999994,603.8264941999987,603.8264941999987,603.8264941999987,603.8264941999987,604.0200164000016,604.0200164000016,604.3208224000009,z,1,0.4904480000004696,None,3.413509525653084,604.3216124999999,604.3367174999985,608.2835286000009,607.7206881999991,,,,,110133,001,2025-03-08_17h38.14.901,stroop,2024.2.4,60.02098333615259,2025-03-08 17h38.20.313674 -0800,
test,inconsistent,8,black,yellow,word,z,800,2000,124,6,2,z,1,0.4932176000002073,None,2,6,124,7,608.2835286000009,,,,,,,,,608.0694857000017,608.2835286000009,608.2835286000009,608.2835286000009,608.2835286000009,608.4200285000006,608.4200285000006,608.7877172000008,z,1,0.4932176000002073,None,3.6828318316669786,608.7885664999994,608.8036479000002,612.8786746000005,612.4549444000004,,,,,110133,001,2025-03-08_17h38.14.901,stroop,2024.2.4,60.02098333615259,2025-03-08 17h38.20.313674 -0800,
test,inconsistent,39,red,yellow,word,z,800,2000,125,7,2,z,1,0.6670565999993414,None,2,7,125,38,612.8786746000005,,,,,,,,,612.7104316000004,612.8786746000005,612.8786746000005,612.8786746000005,612.8786746000005,613.1709674000012,613.1709674000012,613.5545434999985,z,1,0.6670565999993414,None,4.542145638359455,613.5553240000008,613.5709123999986,618.7189020000005,618.088539299999,,,,,110133,001,2025-03-08_17h38.14.901,stroop,2024.2.4,60.02098333615259,2025-03-08 17h38.20.313674 -0800,
test,inconsistent,4,red,green,word,z,800,2000,126,8,2,z,1,0.4209998000005726,None,2,8,126,3,618.7189020000005,,,,,,,,,618.3151601999998,618.7189020000005,618.7189020000005,618.7189020000005,618.7189020000005,618.8047532000019,618.8047532000019,619.1551738000016,z,1,0.4209998000005726,None,5.291857986915108,619.1563692000018,619.1712899999984,625.3399801000014,624.4386311999988,,,,,110133,001,2025-03-08_17h38.14.901,stroop,2024.2.4,60.02098333615259,2025-03-08 17h38.20.313674 -0800,
test,consistent,47,blue,blue,word,m,800,2000,127,9,2,m,1,0.6105233999987831,None,2,9,127,46,625.3399801000014,,,,,,,,,624.9392126999992,625.3399801000014,625.3399801000014,625.3399801000014,625.3399801000014,625.3430212999992,625.3430212999992,625.955891900001,m,1,0.6105233999987831,None,1.9275362550427169,625.9566745000011,625.9720987000001,628.5070702000012,627.8723830000017,,,,,110133,001,2025-03-08_17h38.14.901,stroop,2024.2.4,60.02098333615259,2025-03-08 17h38.20.313674 -0800,
test,inconsistent,14,yellow,blue,word,z,800,2000,128,10,2,z,1,0.4978432999996585,None,2,10,128,13,628.5070702000012,,,,,,,,,628.2061356000013,628.5070702000012,628.5070702000012,628.5070702000012,628.5070702000012,628.5888037000004,628.5888037000004,629.0060166000003,z,1,0.4978432999996585,None,1.0949661798225439,629.0068259,629.0221627999999,630.5109900999996,630.0895138000014,,,,,110133,001,2025-03-08_17h38.14.901,stroop,2024.2.4,60.02098333615259,2025-03-08 17h38.20.313674 -0800,
test,inconsistent,26,green,yellow,word,z,800,2000,129,11,2,z,1,0.9075374000021839,None,2,11,129,25,630.5109900999996,,,,,,,,,630.4115270000002,630.5109900999996,630.5109900999996,,630.5109900999996,630.8060044000013,630.8060044000013,631.4233690000001,z,1,0.9075374000021839,None,5.258429414403239,631.4242274999997,631.4391308999984,637.3210547999988,636.6734543999992,,,,,110133,001,2025-03-08_17h38.14.901,stroop,2024.2.4,60.02098333615259,2025-03-08 17h38.20.313674 -0800,
test,inconsistent,24,blue,green,word,z,800,2000,130,12,2,z,1,0.47081100000286824,None,2,12,130,23,637.3210547999988,,,,,,,,,637.0216844999995,637.3210547999988,637.3210547999988,637.3210547999988,637.3210547999988,637.3896411999995,637.3896411999995,637.8072590000011,z,1,0.47081100000286824,None,2.361174274195281,637.8080851999985,637.8231860999986,640.7932040000014,640.1571920999995,,,,,110133,001,2025-03-08_17h38.14.901,stroop,2024.2.4,60.02098333615259,2025-03-08 17h38.20.313674 -0800,
test,inconsistent,29,green,blue,word,z,800,2000,131,13,2,z,1,0.5945968000014545,None,2,13,131,28,640.7932040000014,,,,,,,,,640.5357117999993,640.7932040000014,640.7932040000014,640.7932040000014,640.7932040000014,640.8733898999999,640.8733898999999,641.3905326999993,z,1,0.5945968000014545,None,3.0821752731990326,641.3913548000019,641.4068775999986,645.0788616999998,644.4578384999986,,,,,110133,001,2025-03-08_17h38.14.901,stroop,2024.2.4,60.02098333615259,2025-03-08 17h38.20.313674 -0800,
test,inconsistent,50,yellow,green,word,z,800,2000,132,14,2,z,1,0.4463039000002027,None,2,14,132,49,645.0788616999998,,,,,,,,,644.7829726000018,645.0788616999998,645.0788616999998,645.0788616999998,645.0788616999998,645.173727100002,645.173727100002,645.541290000001,z,1,0.4463039000002027,None,3.9692636723260932,645.5421462000013,645.5574175000002,650.2015105999999,649.5082172000002,,,,,110133,001,2025-03-08_17h38.14.901,stroop,2024.2.4,60.02098333615259,2025-03-08 17h38.20.313674 -0800,
test,consistent,49,yellow,yellow,word,m,800,2000,133,15,2,z,0,0.45640260000072885,None,2,15,133,48,650.2015105999999,,,,,,,,,649.9020808999994,650.2015105999999,650.2015105999999,650.2015105999999,650.2015105999999,650.2045324999999,650.2045324999999,650.6749640999988,z,0,0.45640260000072885,None,5.0465047610392615,650.6758063000016,650.6911714000016,656.2923020999988,655.7088072000006,,,,,110133,001,2025-03-08_17h38.14.901,stroop,2024.2.4,60.02098333615259,2025-03-08 17h38.20.313674 -0800,
test,consistent,38,blue,blue,word,m,800,2000,134,16,2,m,1,0.5638268000002427,None,2,16,134,37,656.2923020999988,,,,,,,,,656.0338680999994,656.2923020999988,656.2923020999988,656.2923020999988,656.2923020999988,656.4245727999987,656.4245727999987,656.8582638000007,m,1,0.5638268000002427,None,5.066045502464874,656.8587953999995,656.8743954999991,662.4785544000006,661.9094494000019,,,,,110133,001,2025-03-08_17h38.14.901,stroop,2024.2.4,60.02098333615259,2025-03-08 17h38.20.313674 -0800,
test,inconsistent,5,orange,blue,word,z,800,2000,135,17,2,z,1,0.5361215000011725,None,2,17,135,4,662.4785544000006,,,,,,,,,662.2228433000018,662.4785544000006,662.4785544000006,662.4785544000006,662.4785544000006,662.6256852000006,662.6256852000006,663.0263010000017,z,1,0.5361215000011725,None,1.3098190972982455,663.0271275999985,663.042504699999,664.9225545000008,664.3266609999991,,,,,110133,001,2025-03-08_17h38.14.901,stroop,2024.2.4,60.02098333615259,2025-03-08 17h38.20.313674 -0800,
test,inconsistent,53,red,yellow,word,z,800,2000,136,18,2,z,1,0.5636921999976039,None,2,18,136,52,664.9225545000008,,,,,,,,,664.624553900001,664.9225545000008,664.9225545000008,664.9225545000008,664.9225545000008,665.0424148999991,665.0424148999991,665.4932818999987,z,1,0.5636921999976039,None,1.2640968380903237,665.4943903999992,665.5090873000008,667.2311828999991,666.7431948000012,,,,,110133,001,2025-03-08_17h38.14.901,stroop,2024.2.4,60.02098333615259,2025-03-08 17h38.20.313674 -0800,
test,consistent,41,green,green,word,m,800,2000,137,19,2,m,1,0.6151804000000993,None,2,19,137,40,667.2311828999991,,,,,,,,,667.1336499999998,667.2311828999991,667.2311828999991,,667.2311828999991,667.4431568,667.4431568,667.861331600001,m,1,0.6151804000000993,None,2.974202793728427,667.8621655999996,667.8760589000012,671.4281569999985,670.8268715999984,,,,,110133,001,2025-03-08_17h38.14.901,stroop,2024.2.4,60.02098333615259,2025-03-08 17h38.20.313674 -0800,
test,inconsistent,15,yellow,red,word,z,800,2000,138,20,2,z,1,0.4746883000007074,None,2,20,138,14,671.4281569999985,,,,,,,,,671.1292255000008,671.4281569999985,671.4281569999985,671.4281569999985,671.4281569999985,671.5263651999994,671.5263651999994,671.9106057999998,z,1,0.4746883000007074,None,1.3387946520860807,671.9116488,671.9261641000012,673.8754578000007,673.2436904999995,,,,,110133,001,2025-03-08_17h38.14.901,stroop,2024.2.4,60.02098333615259,2025-03-08 17h38.20.313674 -0800,
test,inconsistent,33,yellow,green,word,z,800,2000,139,21,2,z,1,0.4559561999994912,None,2,21,139,32,673.8754578000007,,,,,,,,,673.6531207000007,673.8754578000007,673.8754578000007,673.8754578000007,673.8754578000007,673.9600473999999,673.9600473999999,674.3432587999996,z,1,0.4559561999994912,None,3.3326626593903974,674.3436337999992,674.3597482000005,678.2548198000004,677.6612262000017,,,,,110133,001,2025-03-08_17h38.14.901,stroop,2024.2.4,60.02098333615259,2025-03-08 17h38.20.313674 -0800,
test,inconsistent,19,green,red,word,z,800,2000,140,22,2,z,1,0.4735757000016747,None,2,22,140,18,678.2548198000004,,,,,,,,,677.9564796000013,678.2548198000004,678.2548198000004,678.2548198000004,678.2548198000004,678.3768764999986,678.3768764999986,678.7445057000004,z,1,0.4735757000016747,None,1.7726509342621042,678.745259700001,678.7606544000009,681.1546335999992,680.5113615000009,,,,,110133,001,2025-03-08_17h38.14.901,stroop,2024.2.4,60.02098333615259,2025-03-08 17h38.20.313674 -0800,
test,inconsistent,3,blue,red,word,z,800,2000,141,23,2,z,1,0.43870500000048196,None,2,23,141,2,681.1546335999992,,,,,,,,,680.8577688000005,681.1546335999992,681.1546335999992,681.1546335999992,681.1546335999992,681.2272641999989,681.2272641999989,681.5946814999988,z,1,0.43870500000048196,None,1.8715179956284853,681.5954362000011,681.6109257999997,684.1663427999993,683.4613778999992,,,,,110133,001,2025-03-08_17h38.14.901,stroop,2024.2.4,60.02098333615259,2025-03-08 17h38.20.313674 -0800,
test,consistent,40,yellow,yellow,word,m,800,2000,142,24,2,m,1,0.6586104000016348,None,2,24,142,39,684.1663427999993,,,,,,,,,683.7705051000012,684.1663427999993,684.1663427999993,684.1663427999993,684.1663427999993,684.169316800002,684.169316800002,684.8286391000001,m,1,0.6586104000016348,None,2.7662545801886904,684.829385699999,684.8443000000007,688.2729758999994,687.578430900001,,,,,110133,001,2025-03-08_17h38.14.901,stroop,2024.2.4,60.02098333615259,2025-03-08 17h38.20.313674 -0800,
test,consistent,51,red,red,word,m,800,2000,143,25,2,m,1,0.49924579999787966,None,2,25,143,50,688.2729758999994,,,,,,,,,687.9750839000008,688.2729758999994,688.2729758999994,688.2729758999994,688.2729758999994,688.2764784999999,688.2764784999999,688.7791523999986,m,1,0.49924579999787966,None,5.156394596277465,688.7802101000016,688.7946674000013,694.6048893000007,693.9290746000006,,,,,110133,001,2025-03-08_17h38.14.901,stroop,2024.2.4,60.02098333615259,2025-03-08 17h38.20.313674 -0800,
test,inconsistent,42,green,yellow,word,z,800,2000,144,26,2,z,1,0.5217108999968332,None,2,26,144,41,694.6048893000007,,,,,,,,,694.3088639000016,694.6048893000007,694.6048893000007,694.6048893000007,694.6048893000007,694.6455439999991,694.6455439999991,695.1290889000011,z,1,0.5217108999968332,None,4.153140348263695,695.1298801000012,695.1453813000007,699.8728785999992,699.2794273,,,,,110133,001,2025-03-08_17h38.14.901,stroop,2024.2.4,60.02098333615259,2025-03-08 17h38.20.313674 -0800,
test,inconsistent,22,red,yellow,word,z,800,2000,145,27,2,z,1,0.5551506000010704,None,2,27,145,21,699.8728785999992,,,,,,,,,699.6409066000015,699.8728785999992,699.8728785999992,699.8728785999992,699.8728785999992,699.9956440999995,699.9956440999995,700.4296370000011,z,1,0.5551506000010704,None,1.8885918675744136,700.430439300002,700.4460929999987,702.9313289999991,702.313547400001,,,,,110133,001,2025-03-08_17h38.14.901,stroop,2024.2.4,60.02098333615259,2025-03-08 17h38.20.313674 -0800,
test,inconsistent,48,yellow,red,word,z,800,2000,146,28,2,z,1,0.6045059000025503,None,2,28,146,47,702.9313289999991,,,,,,,,,702.6280111999986,702.9313289999991,702.9313289999991,702.9313289999991,702.9313289999991,703.029671100001,703.029671100001,703.5465809999987,z,1,0.6045059000025503,None,4.721745630019049,703.5473134999993,703.5628624000019,708.981590899999,708.2629893000012,,,,,110133,001,2025-03-08_17h38.14.901,stroop,2024.2.4,60.02098333615259,2025-03-08 17h38.20.313674 -0800,
test,consistent,45,red,red,word,m,800,2000,147,29,2,m,1,0.5346164999973553,None,2,29,147,44,708.981590899999,,,,,,,,,708.682126300002,708.981590899999,708.981590899999,708.981590899999,708.981590899999,708.9850900999991,708.9850900999991,709.5307998999997,m,1,0.5346164999973553,None,3.9080791701816318,709.5316262000015,709.5466273999991,713.8926431,713.4312224999994,,,,,110133,001,2025-03-08_17h38.14.901,stroop,2024.2.4,60.02098333615259,2025-03-08 17h38.20.313674 -0800,
test,consistent,36,red,red,word,m,800,2000,148,30,2,m,1,0.5691775000013877,None,2,30,148,35,713.8926431,,,,,,,,,713.788694400002,713.8926431,713.8926431,,713.8926431,714.1479322999985,714.1479322999985,714.4647466999995,m,1,0.5691775000013877,None,4.1270874171094425,714.4658305000012,714.4806967000004,719.2139874999993,718.5815151999996,,,,,110133,001,2025-03-08_17h38.14.901,stroop,2024.2.4,60.02098333615259,2025-03-08 17h38.20.313674 -0800,
test,consistent,43,green,green,word,m,800,2000,149,31,2,m,1,0.5498067000007723,None,2,31,149,42,719.2139874999993,,,,,,,,,718.9139644999996,719.2139874999993,719.2139874999993,719.2139874999993,719.2139874999993,719.2979584999994,719.2979584999994,719.7651174999992,m,1,0.5498067000007723,None,2.429624716246435,719.7660141999986,719.7813008000012,722.8148290999998,722.1821428000003,,,,,110133,001,2025-03-08_17h38.14.901,stroop,2024.2.4,60.02098333615259,2025-03-08 17h38.20.313674 -0800,
test,inconsistent,25,red,blue,word,z,800,2000,150,32,2,z,1,0.5869184999974095,None,2,32,150,24,722.8148290999998,,,,,,,,,722.5147470000011,722.8148290999998,722.8148290999998,722.8148290999998,722.8148290999998,722.8981343000014,722.8981343000014,723.4149730999998,z,1,0.5869184999974095,None,5.910156887357797,723.4154802000012,723.4313341000015,729.8722850999984,729.3158077000007,,,,,110133,001,2025-03-08_17h38.14.901,stroop,2024.2.4,60.02098333615259,2025-03-08 17h38.20.313674 -0800,
test,inconsistent,16,red,green,word,z,800,2000,151,33,2,z,1,0.5499404999973194,None,2,33,151,15,729.8722850999984,,,,,,,,,729.6493236999995,729.8722850999984,729.8722850999984,729.8722850999984,729.8722850999984,730.0322130999994,730.0322130999994,730.4330033000006,z,1,0.5499404999973194,None,1.4421359936740832,730.4341640999992,730.4489768999993,732.3428442000004,731.8667341,,,,,110133,001,2025-03-08_17h38.14.901,stroop,2024.2.4,60.02098333615259,2025-03-08 17h38.20.313674 -0800,
test,inconsistent,44,green,red,word,z,800,2000,152,34,2,z,1,0.6662324999997509,None,2,34,152,43,732.3428442000004,,,,,,,,,732.1187854000018,732.3428442000004,732.3428442000004,732.3428442000004,732.3428442000004,732.5826009000011,732.5826009000011,733.0163544999996,z,1,0.6662324999997509,None,1.1383991420067883,733.0170777999992,733.0325900999997,734.6934465000013,734.1490797000006,,,,,110133,001,2025-03-08_17h38.14.901,stroop,2024.2.4,60.02098333615259,2025-03-08 17h38.20.313674 -0800,
test,inconsistent,56,green,red,word,z,800,2000,153,35,2,z,1,0.4701692999988154,None,2,35,153,55,734.6934465000013,,,,,,,,,734.3889141,734.6934465000013,734.6934465000013,734.6934465000013,734.6934465000013,734.8491687999995,734.8491687999995,735.166355100002,z,1,0.4701692999988154,None,3.1054347297283567,735.1670908000015,735.1829112999985,738.898546299999,738.2669231,,,,,110133,001,2025-03-08_17h38.14.901,stroop,2024.2.4,60.02098333615259,2025-03-08 17h38.20.313674 -0800,
test,inconsistent,55,green,yellow,word,z,800,2000,154,36,2,z,1,0.5045979999995325,None,2,36,154,54,738.898546299999,,,,,,,,,738.6365933999987,738.898546299999,738.898546299999,738.898546299999,738.898546299999,738.9662400000016,738.9662400000016,739.4171807999992,z,1,0.5045979999995325,None,4.227237334513296,739.4182407000008,739.433310299999,744.0251768000016,743.6339039999984,,,,,110133,001,2025-03-08_17h38.14.901,stroop,2024.2.4,60.02098333615259,2025-03-08 17h38.20.313674 -0800,
test,inconsistent,32,orange,green,word,z,800,2000,155,37,2,z,1,0.5220083999993221,None,2,37,155,31,744.0251768000016,,,,,,,,,743.9262474999996,744.0251768000016,744.0251768000016,,744.0251768000016,744.3339696000003,744.3339696000003,744.5512000999988,z,1,0.5220083999993221,None,3.856073571634999,744.5521043000008,744.5669014999985,748.8930596999999,748.4007796000005,,,,,110133,001,2025-03-08_17h38.14.901,stroop,2024.2.4,60.02098333615259,2025-03-08 17h38.20.313674 -0800,
test,inconsistent,13,purple,red,word,z,800,2000,156,38,2,z,1,0.4710101999990002,None,2,38,156,12,748.8930596999999,,,,,,,,,748.7491193999995,748.8930596999999,748.8930596999999,748.8930596999999,748.8930596999999,749.1008182000005,749.1008182000005,749.3680482000018,z,1,0.4710101999990002,None,4.997233102478485,749.3688585000018,749.3842999000008,754.966097200002,754.351819800002,,,,,110133,001,2025-03-08_17h38.14.901,stroop,2024.2.4,60.02098333615259,2025-03-08 17h38.20.313674 -0800,
test,inconsistent,2,yellow,green,word,z,800,2000,157,39,2,z,1,0.6119085999998788,None,2,39,157,1,754.966097200002,,,,,,,,,754.5671793000001,754.966097200002,754.966097200002,754.966097200002,754.966097200002,755.0680407,755.0680407,755.5853109999989,z,1,0.6119085999998788,None,5.053357320412038,755.5863537000005,755.6014963999987,761.3324675000003,760.6358696999996,,,,,110133,001,2025-03-08_17h38.14.901,stroop,2024.2.4,60.02098333615259,2025-03-08 17h38.20.313674 -0800,
test,consistent,12,yellow,yellow,word,m,800,2000,158,40,2,m,1,0.6982819000004383,None,2,40,158,11,761.3324675000003,,,,,,,,,761.031455700002,761.3324675000003,761.3324675000003,761.3324675000003,761.3324675000003,761.3355655000014,761.3355655000014,762.0361874000009,m,1,0.6982819000004383,None,2.518071666003503,762.0372367000018,762.0520526,765.2597386999987,764.5527494999988,,,,,110133,001,2025-03-08_17h38.14.901,stroop,2024.2.4,60.02098333615259,2025-03-08 17h38.20.313674 -0800,
test,consistent,28,yellow,yellow,word,m,800,2000,159,41,2,m,1,0.6289567999992869,None,2,41,159,27,765.2597386999987,,,,,,,,,764.9599592999984,765.2597386999987,765.2597386999987,765.2597386999987,765.2597386999987,765.2626200000013,765.2626200000013,765.9028648999993,m,1,0.6289567999992869,None,3.9004484620628084,765.9037609000006,765.9191180000016,770.3329957999995,769.8031488999986,,,,,110133,001,2025-03-08_17h38.14.901,stroop,2024.2.4,60.02098333615259,2025-03-08 17h38.20.313674 -0800,
test,consistent,57,yellow,yellow,word,m,800,2000,160,42,2,m,1,0.5568167000019457,None,2,42,160,56,770.3329957999995,,,,,,,,,770.1921823000011,770.3329957999995,770.3329957999995,770.3329957999995,770.3329957999995,770.5194279999996,770.5194279999996,770.9036946000015,m,1,0.5568167000019457,None,2.4067165932781296,770.9046119000013,770.9197788999991,773.8938612999991,773.3036113999988,,,,,110133,001,2025-03-08_17h38.14.901,stroop,2024.2.4,60.02098333615259,2025-03-08 17h38.20.313674 -0800,
test,inconsistent,17,yellow,green,word,z,800,2000,161,43,2,z,1,0.5318197000015061,None,2,43,161,16,773.8938612999991,,,,,,,,,773.4920754999985,773.8938612999991,773.8938612999991,773.8938612999991,773.8938612999991,774.0197847000018,774.0197847000018,774.4368906000018,z,1,0.5318197000015061,None,2.1147052257181125,774.4377387999994,774.453246699999,777.2511424000004,776.5368941000015,,,,,110133,001,2025-03-08_17h38.14.901,stroop,2024.2.4,60.02098333615259,2025-03-08 17h38.20.313674 -0800,
test,inconsistent,9,red,blue,word,z,800,2000,162,44,2,z,1,0.5867448999997578,None,2,44,162,8,777.2511424000004,,,,,,,,,776.9555215,777.2511424000004,777.2511424000004,777.2511424000004,777.2511424000004,777.2547220000015,777.2547220000015,777.8543155000007,z,1,0.5867448999997578,None,5.458317271055351,777.8551227999997,777.8703170000008,783.6907075000017,783.3045482999987,,,,,110133,001,2025-03-08_17h38.14.901,stroop,2024.2.4,60.02098333615259,2025-03-08 17h38.20.313674 -0800,
test,inconsistent,21,black,yellow,word,z,800,2000,163,45,2,z,1,0.6895327999991423,None,2,45,163,20,783.6907075000017,,,,,,,,,783.6778873000003,783.6907075000017,783.6907075000017,,783.6907075000017,784.0044044999995,784.0044044999995,784.3887017999987,z,1,0.6895327999991423,None,5.374491208693709,784.3897622000004,784.4041311000001,790.2717062000011,789.7549657000018,,,,,110133,001,2025-03-08_17h38.14.901,stroop,2024.2.4,60.02098333615259,2025-03-08 17h38.20.313674 -0800,
test,consistent,46,yellow,yellow,word,m,800,2000,164,46,2,m,1,0.8261254999997618,None,2,46,164,45,790.2717062000011,,,,,,,,,789.9767615000019,790.2717062000011,790.2717062000011,790.2717062000011,790.2717062000011,790.4714048999995,790.4714048999995,791.1056285000013,m,1,0.8261254999997618,None,4.597294394431978,791.1064498000014,791.1215760999985,796.2458181000002,795.6889493000017,,,,,110133,001,2025-03-08_17h38.14.901,stroop,2024.2.4,60.02098333615259,2025-03-08 17h38.20.313674 -0800,
test,consistent,54,green,green,word,m,800,2000,165,47,2,m,1,0.6381827000004705,None,2,47,165,53,796.2458181000002,,,,,,,,,796.0140365000007,796.2458181000002,796.2458181000002,796.2458181000002,796.2458181000002,796.3890085999992,796.3890085999992,796.8896562000009,m,1,0.6381827000004705,None,4.075359457362684,796.8906225999999,796.9052630000006,801.4778619999997,800.9561967000009,,,,,110133,001,2025-03-08_17h38.14.901,stroop,2024.2.4,60.02098333615259,2025-03-08 17h38.20.313674 -0800,
test,inconsistent,11,green,red,word,z,800,2000,166,48,2,z,1,0.6047787999996217,None,2,48,166,10,801.4778619999997,,,,,,,,,801.2561693999996,801.4778619999997,801.4778619999997,801.4778619999997,801.4778619999997,801.6559964000007,801.6559964000007,802.0896537000008,z,1,0.6047787999996217,None,5.976196330093436,802.0905863000007,802.106106700001,808.6338819000011,808.0569455000004,,,,,110133,001,2025-03-08_17h38.14.901,stroop,2024.2.4,60.02098333615259,2025-03-08 17h38.20.313674 -0800,
test,consistent,35,red,red,word,m,800,2000,167,49,2,m,1,0.5415820999987773,None,2,49,167,34,808.6338819000011,,,,,,,,,808.3364959999999,808.6338819000011,808.6338819000011,808.6338819000011,808.6338819000011,808.7729074999988,808.7729074999988,809.1906319000009,m,1,0.5415820999987773,None,4.175798112116071,809.1915497000009,809.2068083000013,813.888507300002,813.3574301000008,,,,,110133,001,2025-03-08_17h38.14.901,stroop,2024.2.4,60.02098333615259,2025-03-08 17h38.20.313674 -0800,
test,inconsistent,6,red,yellow,word,z,800,2000,168,50,2,z,1,0.5733375999989221,None,2,50,168,5,813.888507300002,,,,,,,,,813.6668342000012,813.888507300002,813.888507300002,813.888507300002,813.888507300002,814.0571863000005,814.0571863000005,814.4744215999999,z,1,0.5733375999989221,None,3.7252772115267576,814.4752974000003,814.4906211000016,818.667754099999,818.1916653000007,,,,,110133,001,2025-03-08_17h38.14.901,stroop,2024.2.4,60.02098333615259,2025-03-08 17h38.20.313674 -0800,
test,consistent,23,green,green,word,m,800,2000,169,51,2,m,1,0.5739713000002666,None,2,51,169,22,818.667754099999,,,,,,,,,818.5268236000011,818.667754099999,818.667754099999,818.667754099999,818.667754099999,818.9076786000005,818.9076786000005,819.2584028000019,m,1,0.5739713000002666,None,1.876280693181943,819.2593559000015,819.2745003000018,821.6311655999998,821.124786299999,,,,,110133,001,2025-03-08_17h38.14.901,stroop,2024.2.4,60.02098333615259,2025-03-08 17h38.20.313674 -0800,
test,inconsistent,10,green,yellow,word,z,800,2000,170,52,2,z,1,0.5919217000009667,None,2,52,170,9,821.6311655999998,,,,,,,,,821.3282211000005,821.6311655999998,821.6311655999998,821.6311655999998,821.6311655999998,821.824539600002,821.824539600002,822.2252159999989,z,1,0.5919217000009667,None,3.3028243386503036,822.2262843999997,822.2413541999995,826.0962388000007,825.5252108999994,,,,,110133,001,2025-03-08_17h38.14.901,stroop,2024.2.4,60.02098333615259,2025-03-08 17h38.20.313674 -0800,
test,inconsistent,20,red,green,word,z,800,2000,171,53,2,z,1,0.5872037000008277,None,2,53,171,19,826.0962388000007,,,,,,,,,825.876299399999,826.0962388000007,826.0962388000007,826.0962388000007,826.0962388000007,826.2415829999991,826.2415829999991,826.6924225000002,z,1,0.5872037000008277,None,2.6770229891942816,826.6932474999994,826.7083994999994,829.8890293000004,829.3591081999984,,,,,110133,001,2025-03-08_17h38.14.901,stroop,2024.2.4,60.02098333615259,2025-03-08 17h38.20.313674 -0800,
test,inconsistent,58,yellow,red,word,z,800,2000,172,54,2,z,1,0.4600143999996362,None,2,54,172,57,829.8890293000004,,,,,,,,,829.5918358999988,829.8890293000004,829.8890293000004,829.8890293000004,829.8890293000004,830.0751576000002,830.0751576000002,830.3594057000009,z,1,0.4600143999996362,None,3.6197721735768784,830.3601912000013,830.3751230999987,834.6994900999998,833.9758607000003,,,,,110133,001,2025-03-08_17h38.14.901,stroop,2024.2.4,60.02098333615259,2025-03-08 17h38.20.313674 -0800,
test,consistent,7,green,green,word,m,800,2000,173,55,2,m,1,0.6082855000022391,None,2,55,173,6,834.6994900999998,,,,,,,,,834.2967157999992,834.6994900999998,834.6994900999998,834.6994900999998,834.6994900999998,834.7026718000016,834.7026718000016,835.3097029000019,m,1,0.6082855000022391,None,3.106097201135912,835.3105432000011,835.3260856000015,838.9639988000017,838.4097311000005,,,,,110133,001,2025-03-08_17h38.14.901,stroop,2024.2.4,60.02098333615259,2025-03-08 17h38.20.313674 -0800,
test,inconsistent,31,yellow,red,word,z,800,2000,174,56,2,z,1,0.6990491999968071,None,2,56,174,30,838.9639988000017,,,,,,,,,838.8171151999995,838.9639988000017,838.9639988000017,,838.9639988000017,839.1099294999985,839.1099294999985,839.6773801000018,z,1,0.6990491999968071,None,5.868771443760998,839.6782910000002,839.6929571000001,846.2627415999996,845.5438360000007,,,,,110133,001,2025-03-08_17h38.14.901,stroop,2024.2.4,60.02098333615259,2025-03-08 17h38.20.313674 -0800,
test,inconsistent,27,green,red,word,z,800,2000,175,57,2,z,1,0.5251974999991944,None,2,57,175,26,846.2627415999996,,,,,,,,,846.0292789999985,846.2627415999996,846.2627415999996,846.2627415999996,846.2627415999996,846.265866400001,846.265866400001,846.7943349000016,z,1,0.5251974999991944,None,3.468969895025534,846.7951486999991,846.8101147999987,850.8473580999998,850.2608800000016,,,,,110133,001,2025-03-08_17h38.14.901,stroop,2024.2.4,60.02098333615259,2025-03-08 17h38.20.313674 -0800,
test,inconsistent,52,red,green,word,z,800,2000,176,58,2,z,1,0.5409945999999763,None,2,58,176,51,850.8473580999998,,,,,,,,,850.5882506999988,850.8473580999998,850.8473580999998,850.8473580999998,850.8473580999998,850.9606038999991,850.9606038999991,851.3951106999993,z,1,0.5409945999999763,None,4.374960331552644,851.3959125000001,851.4106123999991,856.356526800002,855.7614609000011,,,,,110133,001,2025-03-08_17h38.14.901,stroop,2024.2.4,60.02098333615259,2025-03-08 17h38.20.313674 -0800,
test,consistent,36,red,red,word,m,800,2000,177,0,3,m,1,0.4717162000015378,None,3,0,177,35,856.356526800002,,,,,,,,,856.0554575999995,856.356526800002,856.356526800002,856.356526800002,856.356526800002,856.4781898000001,856.4781898000001,856.8455619999986,m,1,0.4717162000015378,None,2.5841274627410145,856.8464359999998,856.861187999999,860.076875499999,859.4288794999993,,,,,110133,001,2025-03-08_17h38.14.901,stroop,2024.2.4,60.02098333615259,2025-03-08 17h38.20.313674 -0800,
test,inconsistent,30,blue,red,word,z,800,2000,178,1,3,m,0,0.6108950000016193,None,3,1,178,29,860.076875499999,,,,,,,,,859.7780997000009,860.076875499999,860.076875499999,860.076875499999,860.076875499999,860.1450291000001,860.1450291000001,860.6955511999986,m,0,0.6108950000016193,None,1.3795221258545134,860.6964566999995,860.7118528999999,862.6820509999998,862.0623760999988,,,,,110133,001,2025-03-08_17h38.14.901,stroop,2024.2.4,60.02098333615259,2025-03-08 17h38.20.313674 -0800,
test,inconsistent,17,yellow,green,word,z,800,2000,179,2,3,z,1,0.5282738999994763,None,3,2,179,16,862.6820509999998,,,,,,,,,862.3839526000011,862.6820509999998,862.6820509999998,862.6820509999998,862.6820509999998,862.7786005000016,862.7786005000016,863.2123575000005,z,1,0.5282738999994763,None,3.929705013041746,863.2132132000006,863.2286004000016,867.7383340000015,867.1294462000005,,,,,110133,001,2025-03-08_17h38.14.901,stroop,2024.2.4,60.02098333615259,2025-03-08 17h38.20.313674 -0800,
test,consistent,51,red,red,word,m,800,2000,180,3,3,m,1,0.554539400000067,None,3,3,180,50,867.7383340000015,,,,,,,,,867.5209947000003,867.7383340000015,867.7383340000015,867.7383340000015,867.7383340000015,867.845487300001,867.845487300001,868.295704600001,m,1,0.554539400000067,None,1.3233615378063477,868.2960654000017,868.312308200002,870.1179808999987,869.6133078999992,,,,,110133,001,2025-03-08_17h38.14.901,stroop,2024.2.4,60.02098333615259,2025-03-08 17h38.20.313674 -0800,
test,inconsistent,14,yellow,blue,word,z,800,2000,181,4,3,z,1,0.4547286000015447,None,3,4,181,13,870.1179808999987,,,,,,,,,869.8975558999991,870.1179808999987,870.1179808999987,870.1179808999987,870.1179808999987,870.3293129000012,870.3293129000012,870.5802857000017,z,1,0.4547286000015447,None,5.465053937640941,870.5811962000007,870.5957363000016,876.5391127000003,876.0304858999989,,,,,110133,001,2025-03-08_17h38.14.901,stroop,2024.2.4,60.02098333615259,2025-03-08 17h38.20.313674 -0800,
test,inconsistent,29,green,blue,word,z,800,2000,182,5,3,z,1,0.5166510000017297,None,3,5,182,28,876.5391127000003,,,,,,,,,876.2428034000004,876.5391127000003,876.5391127000003,876.5391127000003,876.5391127000003,876.7467819000012,876.7467819000012,877.0638583,z,1,0.5166510000017297,None,1.5916506362218987,877.0646565999996,877.0798953000012,879.3697886000009,878.647264700001,,,,,110133,001,2025-03-08_17h38.14.901,stroop,2024.2.4,60.02098333615259,2025-03-08 17h38.20.313674 -0800,
test,inconsistent,53,red,yellow,word,z,800,2000,183,6,3,z,1,0.5873113999987254,None,3,6,183,52,879.3697886000009,,,,,,,,,879.0721295000003,879.3697886000009,879.3697886000009,879.3697886000009,879.3697886000009,879.3730783999999,879.3730783999999,879.9642304000008,z,1,0.5873113999987254,None,3.335476410431751,879.9653194999992,879.9799544000016,883.7632148000012,883.297763999999,,,,,110133,001,2025-03-08_17h38.14.901,stroop,2024.2.4,60.02098333615259,2025-03-08 17h38.20.313674 -0800,
test,consistent,23,green,green,word,m,800,2000,184,7,3,m,1,0.7559007999989262,None,3,7,184,22,883.7632148000012,,,,,,,,,883.7041078000002,883.7632148000012,883.7632148000012,,883.7632148000012,883.997621999999,883.997621999999,884.5314429999999,m,1,0.7559007999989262,None,5.885950472089421,884.5326817999994,884.5475391,890.8864944999987,890.4151992000006,,,,,110133,001,2025-03-08_17h38.14.901,stroop,2024.2.4,60.02098333615259,2025-03-08 17h38.20.313674 -0800,
test,inconsistent,56,green,red,word,z,800,2000,185,8,3,z,1,0.4565762000020186,None,3,8,185,55,890.8864944999987,,,,,,,,,890.7180427999992,890.8864944999987,890.8864944999987,890.8864944999987,890.8864944999987,891.131343699999,891.131343699999,891.3489587000004,z,1,0.4565762000020186,None,2.348750130086418,891.3497677999985,891.3645305999999,894.1656686999995,893.6821786,,,,,110133,001,2025-03-08_17h38.14.901,stroop,2024.2.4,60.02098333615259,2025-03-08 17h38.20.313674 -0800,
test,inconsistent,3,blue,red,word,z,800,2000,186,9,3,z,1,0.4860006000017165,None,3,9,186,2,894.1656686999995,,,,,,,,,893.9449788999991,894.1656686999995,894.1656686999995,894.1656686999995,894.1656686999995,894.3984550999994,894.3984550999994,894.665370499999,z,1,0.4860006000017165,None,3.0885541082298498,894.6661029999996,894.6818434000015,898.1373383999999,897.7491584000018,,,,,110133,001,2025-03-08_17h38.14.901,stroop,2024.2.4,60.02098333615259,2025-03-08 17h38.20.313674 -0800,
test,inconsistent,59,yellow,green,word,z,800,2000,187,10,3,z,1,0.43534939999881317,None,3,10,187,58,898.1373383999999,,,,,,,,,897.9926273000019,898.1373383999999,898.1373383999999,898.1373383999999,898.1373383999999,898.4652395000012,898.4652395000012,898.5824170999986,z,1,0.43534939999881317,None,4.607410482163046,898.5830706000015,898.5986470999997,903.6291369999999,903.1833856000012,,,,,110133,001,2025-03-08_17h38.14.901,stroop,2024.2.4,60.02098333615259,2025-03-08 17h38.20.313674 -0800,
test,inconsistent,21,black,yellow,word,z,800,2000,188,11,3,z,1,0.42687349999687285,None,3,11,188,20,903.6291369999999,,,,,,,,,903.3997252000008,903.6291369999999,903.6291369999999,903.6291369999999,903.6291369999999,903.8994960000018,903.8994960000018,904.0666033000016,z,1,0.42687349999687285,None,5.257072702324922,904.0674684000005,904.0827916999988,909.800074499999,909.3167609000011,,,,,110133,001,2025-03-08_17h38.14.901,stroop,2024.2.4,60.02098333615259,2025-03-08 17h38.20.313674 -0800,
test,inconsistent,26,green,yellow,word,z,800,2000,189,12,3,z,1,0.4495151999981317,None,3,12,189,25,909.800074499999,,,,,,,,,909.6540802999989,909.800074499999,909.800074499999,909.800074499999,909.800074499999,910.0163511999999,910.0163511999999,910.2505783000015,z,1,0.4495151999981317,None,3.9954851015438724,910.2515529000011,910.2665572000005,914.2503522000006,914.2341152000008,,,,,110133,001,2025-03-08_17h38.14.901,stroop,2024.2.4,60.02098333615259,2025-03-08 17h38.20.313674 -0800,
,,,,,,,,,,,,,,,,,,,,,,,,,,,,,,,,,,,,,,,,,,,,,,,914.2348259999999,914.2503522000006,944.2200978000001,110133,001,2025-03-08_17h38.14.901,stroop,2024.2.4,60.02098333615259,2025-03-08 17h38.20.313674 -0800,
