type,condition1,trialNo,stim1,textColor,stimFormat,key,ITI,presTime,thisN,thisTrialN,thisRepN,key_resp.keys,key_resp.corr,key_resp.rt,key_resp.duration,stroop.thisRepN,stroop.thisTrialN,stroop.thisN,stroop.thisIndex,thisRow.t,notes,welcome.started,text_2.started,key_resp_2.started,welcome.stopped,key_resp_2.keys,key_resp_2.rt,key_resp_2.duration,trial.started,text.started,key_resp.started,trial.stopped,stroop.key_resp.keys,stroop.key_resp.corr,stroop.key_resp.rt,stroop.key_resp.duration,participant,session,date,expName,psychopyVersion,frameRate,expStart,
,,,,,,,,,,,,,,,,,,,,,,0.002934199999970133,0.006910500000003594,0.006910500000003594,1.1759437000000048,space,1.1461860999999658,None,,,,,,,,,906513,001,2025-02-06_20h03.15.209,stroop,2024.2.4,59.86486106263266,2025-02-06 20h03.21.763671 -0800,
test,inconsistent,9,yellow,green,word,right,800,2000,0,0,0,right,1,3.0437083999999572,None,0,0,0,36,1.268534299999999,,,,,,,,,1.263274899999999,1.268534299999999,1.3327080999999907,4.3792227999999795,right,1,3.0437083999999572,None,906513,001,2025-02-06_20h03.15.209,stroop,2024.2.4,59.86486106263266,2025-02-06 20h03.21.763671 -0800,
test,inconsistent,6,green,black,word,right,800,2000,1,1,0,right,1,3.13611370000001,None,0,1,1,5,4.40411899999998,,,,,,,,,4.394791699999985,4.40411899999998,4.543929600000013,7.694006000000002,right,1,3.13611370000001,None,906513,001,2025-02-06_20h03.15.209,stroop,2024.2.4,59.86486106263266,2025-02-06 20h03.21.763671 -0800,
test,consistent,19,green,green,word,left,800,2000,2,2,0,left,1,2.525613300000032,None,0,2,2,18,7.709536200000002,,,,,,,,,7.6948984,7.709536200000002,7.859586400000012,10.39372800000001,left,1,2.525613300000032,None,906513,001,2025-02-06_20h03.15.209,stroop,2024.2.4,59.86486106263266,2025-02-06 20h03.21.763671 -0800,
test,consistent,27,yellow,yellow,word,left,800,2000,3,3,0,left,1,0.857568399999991,None,0,3,3,26,10.408633800000018,,,,,,,,,10.39827059999999,10.408633800000018,10.558724100000006,11.426220600000022,left,1,0.857568399999991,None,906513,001,2025-02-06_20h03.15.209,stroop,2024.2.4,59.86486106263266,2025-02-06 20h03.21.763671 -0800,
test,inconsistent,11,red,green,word,right,800,2000,4,4,0,right,1,0.5187879999999723,None,0,4,4,38,11.441377400000022,,,,,,,,,11.432489599999997,11.441377400000022,11.591564800000015,12.126082999999994,right,1,0.5187879999999723,None,906513,001,2025-02-06_20h03.15.209,stroop,2024.2.4,59.86486106263266,2025-02-06 20h03.21.763671 -0800,
test,consistent,25,red,red,word,left,800,2000,5,5,0,left,1,0.5958133000000316,None,0,5,5,24,12.141628799999978,,,,,,,,,12.127396299999987,12.141628799999978,12.291639499999974,12.892869000000019,left,1,0.5958133000000316,None,906513,001,2025-02-06_20h03.15.209,stroop,2024.2.4,59.86486106263266,2025-02-06 20h03.21.763671 -0800,
test,consistent,1,red,red,word,left,800,2000,6,6,0,left,1,0.8073757000000228,None,0,6,6,28,12.907905099999994,,,,,,,,,12.8939661,12.907905099999994,13.057943000000023,13.877787899999987,left,1,0.8073757000000228,None,906513,001,2025-02-06_20h03.15.209,stroop,2024.2.4,59.86486106263266,2025-02-06 20h03.21.763671 -0800,
test,inconsistent,23,green,yellow,word,right,800,2000,7,7,0,right,1,0.8894999999999982,None,0,7,7,50,13.896337500000016,,,,,,,,,13.887995999999987,13.896337500000016,14.0407644,14.942028100000016,right,1,0.8894999999999982,None,906513,001,2025-02-06_20h03.15.209,stroop,2024.2.4,59.86486106263266,2025-02-06 20h03.21.763671 -0800,
test,consistent,16,yellow,yellow,word,left,800,2000,8,8,0,left,1,0.6615712000000258,None,0,8,8,43,14.956899799999974,,,,,,,,,14.945824000000016,14.956899799999974,15.107195600000011,15.776280699999973,left,1,0.6615712000000258,None,906513,001,2025-02-06_20h03.15.209,stroop,2024.2.4,59.86486106263266,2025-02-06 20h03.21.763671 -0800,
test,inconsistent,30,red,yellow,word,right,800,2000,9,9,0,right,1,0.8302360000000135,None,0,9,9,57,15.791643399999998,,,,,,,,,15.784509000000014,15.791643399999998,15.939137899999992,16.77431059999998,right,1,0.8302360000000135,None,906513,001,2025-02-06_20h03.15.209,stroop,2024.2.4,59.86486106263266,2025-02-06 20h03.21.763671 -0800,
test,inconsistent,2,red,green,word,right,800,2000,10,10,0,right,1,0.7988853999999606,None,0,10,10,29,16.790302899999972,,,,,,,,,16.77500329999998,16.790302899999972,16.93975919999997,17.741573700000004,right,1,0.7988853999999606,None,906513,001,2025-02-06_20h03.15.209,stroop,2024.2.4,59.86486106263266,2025-02-06 20h03.21.763671 -0800,
test,inconsistent,32,green,yellow,word,right,800,2000,11,11,0,right,1,0.7368751999999859,None,0,11,11,59,17.7558406,,,,,,,,,17.7468341,17.7558406,17.906376000000023,18.65942309999997,right,1,0.7368751999999859,None,906513,001,2025-02-06_20h03.15.209,stroop,2024.2.4,59.86486106263266,2025-02-06 20h03.21.763671 -0800,
test,consistent,21,blue,blue,word,left,800,2000,12,12,0,left,1,0.8392263000000071,None,0,12,12,20,18.681954299999973,,,,,,,,,18.672819199999992,18.681954299999973,18.82238480000001,19.675076900000022,left,1,0.8392263000000071,None,906513,001,2025-02-06_20h03.15.209,stroop,2024.2.4,59.86486106263266,2025-02-06 20h03.21.763671 -0800,
test,consistent,7,yellow,yellow,word,left,800,2000,13,13,0,left,1,0.7262043000000062,None,0,13,13,34,19.688971400000014,,,,,,,,,19.681689300000016,19.688971400000014,19.83919609999998,20.575161999999978,left,1,0.7262043000000062,None,906513,001,2025-02-06_20h03.15.209,stroop,2024.2.4,59.86486106263266,2025-02-06 20h03.21.763671 -0800,
test,inconsistent,18,orange,green,word,right,800,2000,14,14,0,right,1,0.7824991000000523,None,0,14,14,17,20.60043810000002,,,,,,,,,20.589599700000008,20.60043810000002,20.738520100000017,21.523518000000024,right,1,0.7824991000000523,None,906513,001,2025-02-06_20h03.15.209,stroop,2024.2.4,59.86486106263266,2025-02-06 20h03.21.763671 -0800,
test,inconsistent,13,blue,green,word,right,800,2000,15,15,0,right,1,1.0076250000000186,None,0,15,15,12,21.538037900000006,,,,,,,,,21.528455199999996,21.538037900000006,21.688469399999974,22.706042500000024,right,1,1.0076250000000186,None,906513,001,2025-02-06_20h03.15.209,stroop,2024.2.4,59.86486106263266,2025-02-06 20h03.21.763671 -0800,
test,inconsistent,5,green,yellow,word,right,800,2000,16,16,0,right,1,0.6781359000000293,None,0,16,16,32,22.721443999999963,,,,,,,,,22.709463900000003,22.721443999999963,22.871248699999967,23.55715349999997,right,1,0.6781359000000293,None,906513,001,2025-02-06_20h03.15.209,stroop,2024.2.4,59.86486106263266,2025-02-06 20h03.21.763671 -0800,
test,inconsistent,15,green,red,word,right,800,2000,17,17,0,right,1,0.7564049999999725,None,0,17,17,42,23.570762000000002,,,,,,,,,23.55783649999995,23.570762000000002,23.72076020000003,24.490751999999986,right,1,0.7564049999999725,None,906513,001,2025-02-06_20h03.15.209,stroop,2024.2.4,59.86486106263266,2025-02-06 20h03.21.763671 -0800,
test,inconsistent,1,yellow,green,word,right,800,2000,18,18,0,right,1,0.7724650000000111,None,0,18,18,0,24.50944720000001,,,,,,,,,24.500394800000038,24.50944720000001,24.654033500000025,25.440893099999982,right,1,0.7724650000000111,None,906513,001,2025-02-06_20h03.15.209,stroop,2024.2.4,59.86486106263266,2025-02-06 20h03.21.763671 -0800,
test,consistent,22,green,green,word,left,800,2000,19,19,0,left,1,0.7418725999999651,None,0,19,19,49,25.457503600000052,,,,,,,,,25.44724260000004,25.457503600000052,25.603440599999942,26.356773199999964,left,1,0.7418725999999651,None,906513,001,2025-02-06_20h03.15.209,stroop,2024.2.4,59.86486106263266,2025-02-06 20h03.21.763671 -0800,
test,consistent,19,red,red,word,left,800,2000,20,20,0,left,1,0.7957197000000633,None,0,20,20,46,26.37139959999996,,,,,,,,,26.365973699999984,26.37139959999996,26.52026070000005,27.320280699999955,left,1,0.7957197000000633,None,906513,001,2025-02-06_20h03.15.209,stroop,2024.2.4,59.86486106263266,2025-02-06 20h03.21.763671 -0800,
test,consistent,31,green,green,word,left,800,2000,21,21,0,left,1,0.9013530000000856,None,0,21,21,58,27.335983,,,,,,,,,27.32319709999996,27.335983,27.486194099999977,28.40601399999997,left,1,0.9013530000000856,None,906513,001,2025-02-06_20h03.15.209,stroop,2024.2.4,59.86486106263266,2025-02-06 20h03.21.763671 -0800,
test,consistent,28,black,black,word,left,800,2000,22,22,0,left,1,1.141435300000012,None,0,22,22,27,28.426901699999974,,,,,,,,,28.41912689999998,28.426901699999974,28.568980299999964,29.72099589999999,left,1,1.141435300000012,None,906513,001,2025-02-06_20h03.15.209,stroop,2024.2.4,59.86486106263266,2025-02-06 20h03.21.763671 -0800,
test,consistent,23,black,black,word,left,800,2000,23,23,0,right,0,2.8165954999999485,None,0,23,23,22,29.73570920000003,,,,,,,,,29.72344300000003,29.73570920000003,29.88535589999998,32.718642500000044,right,0,2.8165954999999485,None,906513,001,2025-02-06_20h03.15.209,stroop,2024.2.4,59.86486106263266,2025-02-06 20h03.21.763671 -0800,
test,inconsistent,9,red,green,word,right,800,2000,24,24,0,right,1,4.757286799999974,None,0,24,24,8,32.73416409999999,,,,,,,,,32.72155939999999,32.73416409999999,32.88405349999999,37.65214780000002,right,1,4.757286799999974,None,906513,001,2025-02-06_20h03.15.209,stroop,2024.2.4,59.86486106263266,2025-02-06 20h03.21.763671 -0800,
test,inconsistent,18,yellow,green,word,right,800,2000,25,25,0,right,1,0.683644700000059,None,0,25,25,45,37.66597900000005,,,,,,,,,37.65727769999995,37.66597900000005,37.81631580000004,38.51789260000004,right,1,0.683644700000059,None,906513,001,2025-02-06_20h03.15.209,stroop,2024.2.4,59.86486106263266,2025-02-06 20h03.21.763671 -0800,
test,consistent,28,red,red,word,left,800,2000,26,26,0,left,1,0.6898379000000432,None,0,26,26,55,38.53239669999999,,,,,,,,,38.52454670000003,38.53239669999999,38.68251449999997,39.385067799999945,left,1,0.6898379000000432,None,906513,001,2025-02-06_20h03.15.209,stroop,2024.2.4,59.86486106263266,2025-02-06 20h03.21.763671 -0800,
test,inconsistent,6,green,red,word,right,800,2000,27,27,0,right,1,1.5296887000000652,None,0,27,27,33,39.39966820000001,,,,,,,,,39.392631600000016,39.39966820000001,39.54853120000001,41.08452870000002,right,1,1.5296887000000652,None,906513,001,2025-02-06_20h03.15.209,stroop,2024.2.4,59.86486106263266,2025-02-06 20h03.21.763671 -0800,
test,inconsistent,14,red,blue,word,right,800,2000,28,28,0,right,1,0.8737978000000339,None,0,28,28,13,41.10527229999997,,,,,,,,,41.09449550000005,41.10527229999997,41.24829300000005,42.13258739999998,right,1,0.8737978000000339,None,906513,001,2025-02-06_20h03.15.209,stroop,2024.2.4,59.86486106263266,2025-02-06 20h03.21.763671 -0800,
test,inconsistent,15,purple,black,word,right,800,2000,29,29,0,right,1,3.3333910999999716,None,0,29,29,14,42.147474000000045,,,,,,,,,42.141108900000006,42.147474000000045,42.29808029999998,45.65041690000004,right,1,3.3333910999999716,None,906513,001,2025-02-06_20h03.15.209,stroop,2024.2.4,59.86486106263266,2025-02-06 20h03.21.763671 -0800,
test,inconsistent,17,yellow,red,word,right,800,2000,30,30,0,right,1,0.8368908999999576,None,0,30,30,44,45.670953699999984,,,,,,,,,45.66026960000005,45.670953699999984,45.81319930000001,46.664637700000014,right,1,0.8368908999999576,None,906513,001,2025-02-06_20h03.15.209,stroop,2024.2.4,59.86486106263266,2025-02-06 20h03.21.763671 -0800,
test,consistent,10,red,red,word,left,800,2000,31,31,0,right,0,0.5921054000000368,None,0,31,31,37,46.683870900000045,,,,,,,,,46.6741116,46.683870900000045,46.830025000000035,47.432474600000035,right,0,0.5921054000000368,None,906513,001,2025-02-06_20h03.15.209,stroop,2024.2.4,59.86486106263266,2025-02-06 20h03.21.763671 -0800,
test,inconsistent,36,yellow,green,word,right,800,2000,32,32,0,right,1,0.7404252999999699,None,0,32,32,63,47.44831949999997,,,,,,,,,47.439971999999955,47.44831949999997,47.595991800000036,48.347230000000025,right,1,0.7404252999999699,None,906513,001,2025-02-06_20h03.15.209,stroop,2024.2.4,59.86486106263266,2025-02-06 20h03.21.763671 -0800,
test,inconsistent,20,red,green,word,right,800,2000,33,33,0,right,1,0.6842318999999861,None,0,33,33,47,48.37129209999995,,,,,,,,,48.358180499999946,48.37129209999995,48.51203119999997,49.19898389999997,right,1,0.6842318999999861,None,906513,001,2025-02-06_20h03.15.209,stroop,2024.2.4,59.86486106263266,2025-02-06 20h03.21.763671 -0800,
test,inconsistent,12,black,yellow,word,right,800,2000,34,34,0,right,1,0.6083913000001075,None,0,34,34,11,49.21467469999999,,,,,,,,,49.206464100000005,49.21467469999999,49.36207719999999,49.97926060000003,right,1,0.6083913000001075,None,906513,001,2025-02-06_20h03.15.209,stroop,2024.2.4,59.86486106263266,2025-02-06 20h03.21.763671 -0800,
test,consistent,24,green,green,word,left,800,2000,35,35,0,right,0,0.7356278999999404,None,0,35,35,23,49.99508339999994,,,,,,,,,49.98231470000002,49.99508339999994,50.145090599999946,50.89625700000005,right,0,0.7356278999999404,None,906513,001,2025-02-06_20h03.15.209,stroop,2024.2.4,59.86486106263266,2025-02-06 20h03.21.763671 -0800,
test,inconsistent,24,green,red,word,right,800,2000,36,36,0,right,1,0.7699249999999438,None,0,36,36,51,50.911755899999946,,,,,,,,,50.89699860000002,50.911755899999946,51.061860399999944,51.84670199999999,right,1,0.7699249999999438,None,906513,001,2025-02-06_20h03.15.209,stroop,2024.2.4,59.86486106263266,2025-02-06 20h03.21.763671 -0800,
test,inconsistent,12,red,yellow,word,right,800,2000,37,37,0,left,0,0.8684850000000779,None,0,37,37,39,51.860982099999944,,,,,,,,,51.85253200000005,51.860982099999944,52.01134799999994,52.895314799999994,left,0,0.8684850000000779,None,906513,001,2025-02-06_20h03.15.209,stroop,2024.2.4,59.86486106263266,2025-02-06 20h03.21.763671 -0800,
test,inconsistent,3,orange,blue,word,right,800,2000,38,38,0,right,1,1.3278174000000718,None,0,38,38,2,52.91058930000003,,,,,,,,,52.90043989999998,52.91058930000003,53.06050079999994,54.39467480000002,right,1,1.3278174000000718,None,906513,001,2025-02-06_20h03.15.209,stroop,2024.2.4,59.86486106263266,2025-02-06 20h03.21.763671 -0800,
test,consistent,22,yellow,yellow,word,left,800,2000,39,39,0,right,0,0.8867215000000215,None,0,39,39,21,54.41010250000005,,,,,,,,,54.39903620000001,54.41010250000005,54.56018869999997,55.462174800000014,right,0,0.8867215000000215,None,906513,001,2025-02-06_20h03.15.209,stroop,2024.2.4,59.86486106263266,2025-02-06 20h03.21.763671 -0800,
test,consistent,26,blue,blue,word,left,800,2000,40,40,0,left,1,0.7146324999999933,None,0,40,40,25,55.476697799999954,,,,,,,,,55.46780299999995,55.476697799999954,55.62672059999994,56.34701239999998,left,1,0.7146324999999933,None,906513,001,2025-02-06_20h03.15.209,stroop,2024.2.4,59.86486106263266,2025-02-06 20h03.21.763671 -0800,
test,inconsistent,16,green,blue,word,right,800,2000,41,41,0,right,1,1.7075389000000314,None,0,41,41,15,56.368473800000004,,,,,,,,,56.35740249999998,56.368473800000004,56.508571700000005,58.22783480000004,right,1,1.7075389000000314,None,906513,001,2025-02-06_20h03.15.209,stroop,2024.2.4,59.86486106263266,2025-02-06 20h03.21.763671 -0800,
test,inconsistent,35,yellow,red,word,right,800,2000,42,42,0,left,0,0.7084932000000208,None,0,42,42,62,58.242249800000025,,,,,,,,,58.23508399999997,58.242249800000025,58.39276030000002,59.11028059999995,left,0,0.7084932000000208,None,906513,001,2025-02-06_20h03.15.209,stroop,2024.2.4,59.86486106263266,2025-02-06 20h03.21.763671 -0800,
test,inconsistent,21,red,yellow,word,right,800,2000,43,43,0,right,1,1.5936093999999912,None,0,43,43,48,59.125031699999965,,,,,,,,,59.115782300000035,59.125031699999965,59.27566310000003,60.87853799999999,right,1,1.5936093999999912,None,906513,001,2025-02-06_20h03.15.209,stroop,2024.2.4,59.86486106263266,2025-02-06 20h03.21.763671 -0800,
test,inconsistent,26,yellow,red,word,right,800,2000,44,44,0,right,1,0.7014265999999907,None,0,44,44,53,60.89968379999999,,,,,,,,,60.88907899999998,60.89968379999999,61.04146429999997,61.75875549999995,right,1,0.7014265999999907,None,906513,001,2025-02-06_20h03.15.209,stroop,2024.2.4,59.86486106263266,2025-02-06 20h03.21.763671 -0800,
test,inconsistent,3,red,yellow,word,right,800,2000,45,45,0,right,1,0.6709187999999813,None,0,45,45,30,61.77540579999999,,,,,,,,,61.76542239999998,61.77540579999999,61.92437560000002,62.60958720000002,right,1,0.6709187999999813,None,906513,001,2025-02-06_20h03.15.209,stroop,2024.2.4,59.86486106263266,2025-02-06 20h03.21.763671 -0800,
test,inconsistent,27,yellow,green,word,right,800,2000,46,46,0,right,1,0.5411499999999023,None,0,46,46,54,62.62408780000004,,,,,,,,,62.617962999999975,62.62408780000004,62.77411179999996,63.32458279999997,right,1,0.5411499999999023,None,906513,001,2025-02-06_20h03.15.209,stroop,2024.2.4,59.86486106263266,2025-02-06 20h03.21.763671 -0800,
test,inconsistent,33,green,red,word,right,800,2000,47,47,0,right,1,1.0869612000000188,None,0,47,47,60,63.340367800000024,,,,,,,,,63.32743439999996,63.340367800000024,63.47375489999996,64.57635769999996,right,1,1.0869612000000188,None,906513,001,2025-02-06_20h03.15.209,stroop,2024.2.4,59.86486106263266,2025-02-06 20h03.21.763671 -0800,
test,inconsistent,17,blue,red,word,right,800,2000,48,48,0,right,1,0.8253873000001022,None,0,48,48,16,64.59029049999998,,,,,,,,,64.58296490000004,64.59029049999998,64.74046119999997,65.57455169999997,right,1,0.8253873000001022,None,906513,001,2025-02-06_20h03.15.209,stroop,2024.2.4,59.86486106263266,2025-02-06 20h03.21.763671 -0800,
test,inconsistent,8,yellow,blue,word,right,800,2000,49,49,0,right,1,0.6509598000000096,None,0,49,49,7,65.58964080000004,,,,,,,,,65.57857900000005,65.58964080000004,65.73995389999999,66.40685869999999,right,1,0.6509598000000096,None,906513,001,2025-02-06_20h03.15.209,stroop,2024.2.4,59.86486106263266,2025-02-06 20h03.21.763671 -0800,
test,inconsistent,7,purple,red,word,right,800,2000,50,50,0,right,1,0.8684360000000879,None,0,50,50,6,66.42283979999996,,,,,,,,,66.41005200000001,66.42283979999996,66.55642140000003,67.44191140000004,right,1,0.8684360000000879,None,906513,001,2025-02-06_20h03.15.209,stroop,2024.2.4,59.86486106263266,2025-02-06 20h03.21.763671 -0800,
test,consistent,4,green,green,word,left,800,2000,51,51,0,left,1,0.6947989999999891,None,0,51,51,31,67.45603,,,,,,,,,67.44640669999995,67.45603,67.60550140000004,68.30665249999998,left,1,0.6947989999999891,None,906513,001,2025-02-06_20h03.15.209,stroop,2024.2.4,59.86486106263266,2025-02-06 20h03.21.763671 -0800,
test,inconsistent,29,red,green,word,right,800,2000,52,52,0,right,1,0.8276734999999462,None,0,52,52,56,68.32212209999994,,,,,,,,,68.31210000000004,68.32212209999994,68.4723257,69.30760479999998,right,1,0.8276734999999462,None,906513,001,2025-02-06_20h03.15.209,stroop,2024.2.4,59.86486106263266,2025-02-06 20h03.21.763671 -0800,
test,inconsistent,14,green,yellow,word,right,800,2000,53,53,0,right,1,1.0024358000000575,None,0,53,53,41,69.32146099999994,,,,,,,,,69.31415320000002,69.32146099999994,69.4715481,70.48941459999998,right,1,1.0024358000000575,None,906513,001,2025-02-06_20h03.15.209,stroop,2024.2.4,59.86486106263266,2025-02-06 20h03.21.763671 -0800,
test,consistent,20,red,red,word,left,800,2000,54,54,0,left,1,0.823169699999994,None,0,54,54,19,70.50550449999997,,,,,,,,,70.49614400000002,70.50550449999997,70.65476440000003,71.48830700000002,left,1,0.823169699999994,None,906513,001,2025-02-06_20h03.15.209,stroop,2024.2.4,59.86486106263266,2025-02-06 20h03.21.763671 -0800,
test,inconsistent,8,yellow,red,word,right,800,2000,55,55,0,right,1,0.8270244999999932,None,0,55,55,35,71.5041071,,,,,,,,,71.49109379999999,71.5041071,71.65445919999996,72.48834679999999,right,1,0.8270244999999932,None,906513,001,2025-02-06_20h03.15.209,stroop,2024.2.4,59.86486106263266,2025-02-06 20h03.21.763671 -0800,
test,consistent,34,yellow,yellow,word,left,800,2000,56,56,0,left,1,0.7654311999999663,None,0,56,56,61,72.50381620000002,,,,,,,,,72.4891197,72.50381620000002,72.65367659999998,73.42433569999997,left,1,0.7654311999999663,None,906513,001,2025-02-06_20h03.15.209,stroop,2024.2.4,59.86486106263266,2025-02-06 20h03.21.763671 -0800,
test,consistent,13,green,green,word,left,800,2000,57,57,0,left,1,0.8541916000000356,None,0,57,57,40,73.44000669999997,,,,,,,,,73.4323225,73.44000669999997,73.58685789999998,74.4558169,left,1,0.8541916000000356,None,906513,001,2025-02-06_20h03.15.209,stroop,2024.2.4,59.86486106263266,2025-02-06 20h03.21.763671 -0800,
test,consistent,25,yellow,yellow,word,left,800,2000,58,58,0,left,1,0.7623138000000154,None,0,58,58,52,74.47165230000002,,,,,,,,,74.46422990000002,74.47165230000002,74.62027549999999,75.39028300000001,left,1,0.7623138000000154,None,906513,001,2025-02-06_20h03.15.209,stroop,2024.2.4,59.86486106263266,2025-02-06 20h03.21.763671 -0800,
test,inconsistent,11,green,red,word,right,800,2000,59,59,0,right,1,0.7974482999999282,None,0,59,59,10,75.41204320000003,,,,,,,,,75.40143419999998,75.41204320000003,75.55281989999997,76.35514940000002,right,1,0.7974482999999282,None,906513,001,2025-02-06_20h03.15.209,stroop,2024.2.4,59.86486106263266,2025-02-06 20h03.21.763671 -0800,
test,inconsistent,10,orange,black,word,right,800,2000,60,60,0,right,1,2.1277383000000327,None,0,60,60,9,76.37707029999996,,,,,,,,,76.36694459999995,76.37707029999996,76.51925720000003,78.65284070000001,right,1,2.1277383000000327,None,906513,001,2025-02-06_20h03.15.209,stroop,2024.2.4,59.86486106263266,2025-02-06 20h03.21.763671 -0800,
test,inconsistent,4,black,yellow,word,right,800,2000,61,61,0,None,0,,,0,61,61,3,78.66826410000004,,,,,,,,,78.65568979999995,78.66826410000004,78.81837049999996,83.65156610000003,None,0,,,906513,001,2025-02-06_20h03.15.209,stroop,2024.2.4,59.86486106263266,2025-02-06 20h03.21.763671 -0800,
test,inconsistent,2,blue,red,word,right,800,2000,62,62,0,None,0,,,0,62,62,1,83.66660629999996,,,,,,,,,83.65822480000003,83.66660629999996,83.81656319999996,88.65070459999998,None,0,,,906513,001,2025-02-06_20h03.15.209,stroop,2024.2.4,59.86486106263266,2025-02-06 20h03.21.763671 -0800,
test,inconsistent,5,red,blue,word,right,800,2000,63,63,0,None,0,,,0,63,63,4,88.66988420000001,,,,,,,,,88.66287519999997,88.66988420000001,88.81522969999997,93.64744190000005,None,0,,,906513,001,2025-02-06_20h03.15.209,stroop,2024.2.4,59.86486106263266,2025-02-06 20h03.21.763671 -0800,
test,inconsistent,3,red,yellow,word,right,800,2000,64,0,1,right,1,1.0838249000000815,None,1,0,64,30,93.66326929999997,,,,,,,,,93.64813099999998,93.66326929999997,93.81324809999995,94.91578499999997,right,1,1.0838249000000815,None,906513,001,2025-02-06_20h03.15.209,stroop,2024.2.4,59.86486106263266,2025-02-06 20h03.21.763671 -0800,
test,inconsistent,1,yellow,green,word,right,800,2000,65,1,1,right,1,1.330215399999929,None,1,1,65,0,94.9323675,,,,,,,,,94.92480070000005,94.9323675,95.07996959999997,96.41410979999995,right,1,1.330215399999929,None,906513,001,2025-02-06_20h03.15.209,stroop,2024.2.4,59.86486106263266,2025-02-06 20h03.21.763671 -0800,
test,inconsistent,9,red,green,word,right,800,2000,66,2,1,right,1,0.5471251999999822,None,1,2,66,8,96.42893399999997,,,,,,,,,96.4189551,96.42893399999997,96.57892420000002,97.1300511,right,1,0.5471251999999822,None,906513,001,2025-02-06_20h03.15.209,stroop,2024.2.4,59.86486106263266,2025-02-06 20h03.21.763671 -0800,
test,inconsistent,21,red,yellow,word,right,800,2000,67,3,1,right,1,3.534486900000047,None,1,3,67,48,97.1454468,,,,,,,,,97.13077719999995,97.1454468,97.29558809999997,100.84829269999994,right,1,3.534486900000047,None,906513,001,2025-02-06_20h03.15.209,stroop,2024.2.4,59.86486106263266,2025-02-06 20h03.21.763671 -0800,
test,consistent,22,yellow,yellow,word,left,800,2000,68,4,1,right,0,0.7168384999999944,None,1,4,68,21,100.86272779999996,,,,,,,,,100.85351499999996,100.86272779999996,101.01084750000001,101.72901259999998,right,0,0.7168384999999944,None,906513,001,2025-02-06_20h03.15.209,stroop,2024.2.4,59.86486106263266,2025-02-06 20h03.21.763671 -0800,
test,inconsistent,17,yellow,red,word,right,800,2000,69,5,1,right,1,0.9258162999999513,None,1,5,69,44,101.7439741,,,,,,,,,101.72974919999996,101.7439741,101.89399650000001,102.82983380000002,right,1,0.9258162999999513,None,906513,001,2025-02-06_20h03.15.209,stroop,2024.2.4,59.86486106263266,2025-02-06 20h03.21.763671 -0800,
test,consistent,26,blue,blue,word,left,800,2000,70,6,1,left,1,0.4228381000000354,None,1,6,70,25,102.84845969999998,,,,,,,,,102.8392766,102.84845969999998,102.99347689999996,103.42999370000001,left,1,0.4228381000000354,None,906513,001,2025-02-06_20h03.15.209,stroop,2024.2.4,59.86486106263266,2025-02-06 20h03.21.763671 -0800,
test,inconsistent,36,yellow,green,word,right,800,2000,71,7,1,right,1,0.5499216000000615,None,1,7,71,63,103.44681259999999,,,,,,,,,103.43545609999995,103.44681259999999,103.59327390000004,104.1442917,right,1,0.5499216000000615,None,906513,001,2025-02-06_20h03.15.209,stroop,2024.2.4,59.86486106263266,2025-02-06 20h03.21.763671 -0800,
test,consistent,23,black,black,word,left,800,2000,72,8,1,None,0,,,1,8,72,22,104.15961699999997,,,,,,,,,104.14872329999997,104.15961699999997,104.31002319999999,109.14383830000003,None,0,,,906513,001,2025-02-06_20h03.15.209,stroop,2024.2.4,59.86486106263266,2025-02-06 20h03.21.763671 -0800,
test,inconsistent,17,blue,red,word,right,800,2000,73,9,1,None,0,,,1,9,73,16,109.16279430000003,,,,,,,,,109.15403759999998,109.16279430000003,109.30809719999996,114.14070339999995,None,0,,,906513,001,2025-02-06_20h03.15.209,stroop,2024.2.4,59.86486106263266,2025-02-06 20h03.21.763671 -0800,
test,inconsistent,3,orange,blue,word,right,800,2000,74,10,1,right,1,2.5705509999999094,None,1,10,74,2,114.1563739,,,,,,,,,114.14462420000001,114.1563739,114.30628670000004,116.89301919999997,right,1,2.5705509999999094,None,906513,001,2025-02-06_20h03.15.209,stroop,2024.2.4,59.86486106263266,2025-02-06 20h03.21.763671 -0800,
test,inconsistent,26,yellow,red,word,right,800,2000,75,11,1,right,1,0.7269751000000042,None,1,11,75,53,116.91493970000005,,,,,,,,,116.90320060000005,116.91493970000005,117.05574329999996,117.78933850000004,right,1,0.7269751000000042,None,906513,001,2025-02-06_20h03.15.209,stroop,2024.2.4,59.86486106263266,2025-02-06 20h03.21.763671 -0800,
test,consistent,27,yellow,yellow,word,left,800,2000,76,12,1,left,1,0.4282157999999754,None,1,12,76,26,117.8051863,,,,,,,,,117.79009109999998,117.8051863,117.95521290000005,118.38950960000005,left,1,0.4282157999999754,None,906513,001,2025-02-06_20h03.15.209,stroop,2024.2.4,59.86486106263266,2025-02-06 20h03.21.763671 -0800,
test,consistent,10,red,red,word,left,800,2000,77,13,1,left,1,0.6498696999999538,None,1,13,77,37,118.40505660000002,,,,,,,,,118.39360340000002,118.40505660000002,118.55503270000003,119.20618699999994,left,1,0.6498696999999538,None,906513,001,2025-02-06_20h03.15.209,stroop,2024.2.4,59.86486106263266,2025-02-06 20h03.21.763671 -0800,
test,inconsistent,27,yellow,green,word,right,800,2000,78,14,1,right,1,0.4075263999999379,None,1,14,78,54,119.22114249999998,,,,,,,,,119.21006800000004,119.22114249999998,119.37114530000002,119.7891821,right,1,0.4075263999999379,None,906513,001,2025-02-06_20h03.15.209,stroop,2024.2.4,59.86486106263266,2025-02-06 20h03.21.763671 -0800,
test,inconsistent,33,green,red,word,right,800,2000,79,15,1,left,0,0.48129270000004,None,1,15,79,60,119.80458670000002,,,,,,,,,119.79190780000005,119.80458670000002,119.95467249999996,120.43873809999997,left,0,0.48129270000004,None,906513,001,2025-02-06_20h03.15.209,stroop,2024.2.4,59.86486106263266,2025-02-06 20h03.21.763671 -0800,
test,inconsistent,12,black,yellow,word,right,800,2000,80,16,1,right,1,0.9097662000000355,None,1,16,80,11,120.45404100000002,,,,,,,,,120.44258410000003,120.45404100000002,120.60400759999999,121.52193289999997,right,1,0.9097662000000355,None,906513,001,2025-02-06_20h03.15.209,stroop,2024.2.4,59.86486106263266,2025-02-06 20h03.21.763671 -0800,
test,inconsistent,15,purple,black,word,right,800,2000,81,17,1,None,0,,,1,17,81,14,121.53719470000004,,,,,,,,,121.52584740000003,121.53719470000004,121.6863702,126.51969030000004,None,0,,,906513,001,2025-02-06_20h03.15.209,stroop,2024.2.4,59.86486106263266,2025-02-06 20h03.21.763671 -0800,
test,inconsistent,8,yellow,red,word,right,800,2000,82,18,1,None,0,,,1,18,82,35,126.53536130000003,,,,,,,,,126.52297589999995,126.53536130000003,126.68550639999995,131.5202493,None,0,,,906513,001,2025-02-06_20h03.15.209,stroop,2024.2.4,59.86486106263266,2025-02-06 20h03.21.763671 -0800,
test,inconsistent,5,green,yellow,word,right,800,2000,83,19,1,None,0,,,1,19,83,32,131.53447680000005,,,,,,,,,131.52954700000004,131.53447680000005,131.68365120000004,136.51758130000002,None,0,,,906513,001,2025-02-06_20h03.15.209,stroop,2024.2.4,59.86486106263266,2025-02-06 20h03.21.763671 -0800,
test,inconsistent,23,green,yellow,word,right,800,2000,84,20,1,None,0,,,1,20,84,50,136.53190490000003,,,,,,,,,136.52031600000004,136.53190490000003,136.68211579999996,141.5163101,None,0,,,906513,001,2025-02-06_20h03.15.209,stroop,2024.2.4,59.86486106263266,2025-02-06 20h03.21.763671 -0800,
test,consistent,20,red,red,word,left,800,2000,85,21,1,None,0,,,1,21,85,19,141.53023409999997,,,,,,,,,141.52163539999998,141.53023409999997,141.68011359999997,146.51376150000004,None,0,,,906513,001,2025-02-06_20h03.15.209,stroop,2024.2.4,59.86486106263266,2025-02-06 20h03.21.763671 -0800,
test,consistent,7,yellow,yellow,word,left,800,2000,86,22,1,None,0,,,1,22,86,34,146.52864329999994,,,,,,,,,146.51798319999995,146.52864329999994,146.6789346,151.51109319999995,None,0,,,906513,001,2025-02-06_20h03.15.209,stroop,2024.2.4,59.86486106263266,2025-02-06 20h03.21.763671 -0800,
test,inconsistent,11,red,green,word,right,800,2000,87,23,1,None,0,,,1,23,87,38,151.52658119999995,,,,,,,,,151.5183311,151.52658119999995,151.67660659999996,156.51105709999996,None,0,,,906513,001,2025-02-06_20h03.15.209,stroop,2024.2.4,59.86486106263266,2025-02-06 20h03.21.763671 -0800,
test,inconsistent,18,orange,green,word,right,800,2000,88,24,1,right,1,2.5266871000000037,None,1,24,88,17,156.52855419999997,,,,,,,,,156.52140300000002,156.52855419999997,156.67494500000004,159.21069240000003,right,1,2.5266871000000037,None,906513,001,2025-02-06_20h03.15.209,stroop,2024.2.4,59.86486106263266,2025-02-06 20h03.21.763671 -0800,
test,consistent,22,green,green,word,left,800,2000,89,25,1,right,0,0.3557282000000441,None,1,25,89,49,159.2268055,,,,,,,,,159.22028959999994,159.2268055,159.37439220000005,159.7418068,right,0,0.3557282000000441,None,906513,001,2025-02-06_20h03.15.209,stroop,2024.2.4,59.86486106263266,2025-02-06 20h03.21.763671 -0800,
test,consistent,19,green,green,word,left,800,2000,90,26,1,right,0,0.28689410000004045,None,1,26,90,18,159.75715429999997,,,,,,,,,159.74246599999998,159.75715429999997,159.90704309999995,160.21097130000004,right,0,0.28689410000004045,None,906513,001,2025-02-06_20h03.15.209,stroop,2024.2.4,59.86486106263266,2025-02-06 20h03.21.763671 -0800,
test,consistent,13,green,green,word,left,800,2000,91,27,1,right,0,0.19983769999998913,None,1,27,91,40,160.22438270000004,,,,,,,,,160.21363190000005,160.22438270000004,160.37383210000002,160.57512130000003,right,0,0.19983769999998913,None,906513,001,2025-02-06_20h03.15.209,stroop,2024.2.4,59.86486106263266,2025-02-06 20h03.21.763671 -0800,
test,consistent,24,green,green,word,left,800,2000,92,28,1,right,0,0.7054843000000801,None,1,28,92,23,160.59018239999995,,,,,,,,,160.57585360000002,160.59018239999995,160.7404773,161.45816059999999,right,0,0.7054843000000801,None,906513,001,2025-02-06_20h03.15.209,stroop,2024.2.4,59.86486106263266,2025-02-06 20h03.21.763671 -0800,
test,inconsistent,35,yellow,red,word,right,800,2000,93,29,1,right,1,0.6911418000000822,None,1,29,93,62,161.47362449999997,,,,,,,,,161.46450280000005,161.47362449999997,161.62304850000004,162.32431130000003,right,1,0.6911418000000822,None,906513,001,2025-02-06_20h03.15.209,stroop,2024.2.4,59.86486106263266,2025-02-06 20h03.21.763671 -0800,
test,inconsistent,12,red,yellow,word,right,800,2000,94,30,1,right,1,0.3781686999999465,None,1,30,94,39,162.33973989999998,,,,,,,,,162.32931749999995,162.33973989999998,162.48963150000003,162.8738705,right,1,0.3781686999999465,None,906513,001,2025-02-06_20h03.15.209,stroop,2024.2.4,59.86486106263266,2025-02-06 20h03.21.763671 -0800,
test,inconsistent,30,red,yellow,word,right,800,2000,95,31,1,right,1,0.280433300000027,None,1,31,95,57,162.88944009999994,,,,,,,,,162.87456149999997,162.88944009999994,163.03946479999996,163.3236238,right,1,0.280433300000027,None,906513,001,2025-02-06_20h03.15.209,stroop,2024.2.4,59.86486106263266,2025-02-06 20h03.21.763671 -0800,
test,inconsistent,15,green,red,word,right,800,2000,96,32,1,right,1,0.5244290999999066,None,1,32,96,42,163.33917230000003,,,,,,,,,163.32646289999997,163.33917230000003,163.48947370000002,164.02339420000004,right,1,0.5244290999999066,None,906513,001,2025-02-06_20h03.15.209,stroop,2024.2.4,59.86486106263266,2025-02-06 20h03.21.763671 -0800,
test,consistent,31,green,green,word,left,800,2000,97,33,1,left,1,0.4237880000000587,None,1,33,97,58,164.0389535,,,,,,,,,164.02422499999994,164.0389535,164.18902069999996,164.62385639999997,left,1,0.4237880000000587,None,906513,001,2025-02-06_20h03.15.209,stroop,2024.2.4,59.86486106263266,2025-02-06 20h03.21.763671 -0800,
test,inconsistent,24,green,red,word,right,800,2000,98,34,1,right,1,0.5066229999999905,None,1,34,98,51,164.63891670000004,,,,,,,,,164.6246031,164.63891670000004,164.78967270000004,165.30722280000003,right,1,0.5066229999999905,None,906513,001,2025-02-06_20h03.15.209,stroop,2024.2.4,59.86486106263266,2025-02-06 20h03.21.763671 -0800,
test,consistent,34,yellow,yellow,word,left,800,2000,99,35,1,left,1,0.4429329999999254,None,1,35,99,61,165.32200270000004,,,,,,,,,165.3129826,165.32200270000004,165.4722215,165.92281210000004,left,1,0.4429329999999254,None,906513,001,2025-02-06_20h03.15.209,stroop,2024.2.4,59.86486106263266,2025-02-06 20h03.21.763671 -0800,
test,inconsistent,8,yellow,blue,word,right,800,2000,100,36,1,right,1,0.48590230000002066,None,1,36,100,7,165.9391605,,,,,,,,,165.9235481,165.9391605,166.0882681,166.58883180000004,right,1,0.48590230000002066,None,906513,001,2025-02-06_20h03.15.209,stroop,2024.2.4,59.86486106263266,2025-02-06 20h03.21.763671 -0800,
test,inconsistent,9,yellow,green,word,right,800,2000,101,37,1,left,0,0.45372839999993175,None,1,37,101,36,166.60496519999998,,,,,,,,,166.58951150000001,166.60496519999998,166.73823980000003,167.20678960000004,left,0,0.45372839999993175,None,906513,001,2025-02-06_20h03.15.209,stroop,2024.2.4,59.86486106263266,2025-02-06 20h03.21.763671 -0800,
test,consistent,25,red,red,word,left,800,2000,102,38,1,right,0,0.926601699999992,None,1,38,102,24,167.22123860000005,,,,,,,,,167.21240129999995,167.22123860000005,167.37119820000004,168.3052055,right,0,0.926601699999992,None,906513,001,2025-02-06_20h03.15.209,stroop,2024.2.4,59.86486106263266,2025-02-06 20h03.21.763671 -0800,
test,inconsistent,7,purple,red,word,right,800,2000,103,39,1,left,0,0.5578977999999779,None,1,39,103,6,168.32082889999998,,,,,,,,,168.30823360000005,168.32082889999998,168.4708854,169.0382652,left,0,0.5578977999999779,None,906513,001,2025-02-06_20h03.15.209,stroop,2024.2.4,59.86486106263266,2025-02-06 20h03.21.763671 -0800,
test,inconsistent,10,orange,black,word,right,800,2000,104,40,1,right,1,0.21778840000001765,None,1,40,104,9,169.05400100000003,,,,,,,,,169.04135019999995,169.05400100000003,169.2040209,169.43812710000003,right,1,0.21778840000001765,None,906513,001,2025-02-06_20h03.15.209,stroop,2024.2.4,59.86486106263266,2025-02-06 20h03.21.763671 -0800,
test,inconsistent,16,green,blue,word,right,800,2000,105,41,1,left,0,0.08017940000002,None,1,41,105,15,169.4540675,,,,,,,,,169.4413718,169.4540675,169.6037336,169.6883525,left,0,0.08017940000002,None,906513,001,2025-02-06_20h03.15.209,stroop,2024.2.4,59.86486106263266,2025-02-06 20h03.21.763671 -0800,
test,consistent,16,yellow,yellow,word,left,800,2000,106,42,1,right,0,0.009438299999942501,None,1,42,106,43,169.70401439999995,,,,,,,,,169.69169700000003,169.70401439999995,169.8536188,169.87121459999997,right,0,0.009438299999942501,None,906513,001,2025-02-06_20h03.15.209,stroop,2024.2.4,59.86486106263266,2025-02-06 20h03.21.763671 -0800,
test,inconsistent,20,red,green,word,right,800,2000,107,43,1,left,0,0.02082129999996596,None,1,43,107,47,169.88683480000003,,,,,,,,,169.87384979999996,169.88683480000003,170.03644360000004,170.07106059999995,left,0,0.02082129999996596,None,906513,001,2025-02-06_20h03.15.209,stroop,2024.2.4,59.86486106263266,2025-02-06 20h03.21.763671 -0800,
test,consistent,28,red,red,word,left,800,2000,108,44,1,left,1,0.11850090000007185,None,1,44,108,55,170.08621109999996,,,,,,,,,170.07185699999997,170.08621109999996,170.2369018,170.37129180000005,left,1,0.11850090000007185,None,906513,001,2025-02-06_20h03.15.209,stroop,2024.2.4,59.86486106263266,2025-02-06 20h03.21.763671 -0800,
test,inconsistent,6,green,black,word,right,800,2000,109,45,1,left,0,0.13481130000002395,None,1,45,109,5,170.3868336,,,,,,,,,170.37578530000002,170.3868336,170.53684259999994,170.68802980000004,left,0,0.13481130000002395,None,906513,001,2025-02-06_20h03.15.209,stroop,2024.2.4,59.86486106263266,2025-02-06 20h03.21.763671 -0800,
test,consistent,4,green,green,word,left,800,2000,110,46,1,right,0,0.06704150000007303,None,1,46,110,31,170.70357169999994,,,,,,,,,170.6887453,170.70357169999994,170.85363109999997,170.93769330000003,right,0,0.06704150000007303,None,906513,001,2025-02-06_20h03.15.209,stroop,2024.2.4,59.86486106263266,2025-02-06 20h03.21.763671 -0800,
test,inconsistent,6,green,red,word,right,800,2000,111,47,1,right,1,0.20321479999995518,None,1,47,111,33,170.95320239999995,,,,,,,,,170.9384114,170.95320239999995,171.10329959999996,171.3208113,right,1,0.20321479999995518,None,906513,001,2025-02-06_20h03.15.209,stroop,2024.2.4,59.86486106263266,2025-02-06 20h03.21.763671 -0800,
test,inconsistent,32,green,yellow,word,right,800,2000,112,48,1,right,1,0.22801400000003014,None,1,48,112,59,171.33663929999994,,,,,,,,,171.32152079999997,171.33663929999994,171.48665050000005,171.7223399,right,1,0.22801400000003014,None,906513,001,2025-02-06_20h03.15.209,stroop,2024.2.4,59.86486106263266,2025-02-06 20h03.21.763671 -0800,
test,inconsistent,2,red,green,word,right,800,2000,113,49,1,left,0,0.03585559999999077,None,1,49,113,29,171.73709909999997,,,,,,,,,171.72652780000004,171.73709909999997,171.88625859999996,171.93804830000005,left,0,0.03585559999999077,None,906513,001,2025-02-06_20h03.15.209,stroop,2024.2.4,59.86486106263266,2025-02-06 20h03.21.763671 -0800,
test,consistent,21,blue,blue,word,left,800,2000,114,50,1,right,0,0.09008930000004511,None,1,50,114,20,171.95308849999998,,,,,,,,,171.94312940000003,171.95308849999998,172.10306859999997,172.20433610000003,right,0,0.09008930000004511,None,906513,001,2025-02-06_20h03.15.209,stroop,2024.2.4,59.86486106263266,2025-02-06 20h03.21.763671 -0800,
test,consistent,19,red,red,word,left,800,2000,115,51,1,left,1,0.018492699999910656,None,1,51,115,46,172.21948149999997,,,,,,,,,172.2103232,172.21948149999997,172.36956700000002,172.40440840000002,left,1,0.018492699999910656,None,906513,001,2025-02-06_20h03.15.209,stroop,2024.2.4,59.86486106263266,2025-02-06 20h03.21.763671 -0800,
test,consistent,25,yellow,yellow,word,left,800,2000,116,52,1,right,0,0.03840130000003228,None,1,52,116,52,172.4192807,,,,,,,,,172.4083417,172.4192807,172.57015589999997,172.6203582,right,0,0.03840130000003228,None,906513,001,2025-02-06_20h03.15.209,stroop,2024.2.4,59.86486106263266,2025-02-06 20h03.21.763671 -0800,
test,inconsistent,14,green,yellow,word,right,800,2000,117,53,1,left,0,0.01763139999991381,None,1,53,117,41,172.63590059999996,,,,,,,,,172.62329619999997,172.63590059999996,172.78593029999996,172.8209139,left,0,0.01763139999991381,None,906513,001,2025-02-06_20h03.15.209,stroop,2024.2.4,59.86486106263266,2025-02-06 20h03.21.763671 -0800,
test,inconsistent,29,red,green,word,right,800,2000,118,54,1,left,0,0.20936940000001414,None,1,54,118,56,172.83690499999994,,,,,,,,,172.82878190000002,172.83690499999994,172.98634529999998,173.20324269999998,left,0,0.20936940000001414,None,906513,001,2025-02-06_20h03.15.209,stroop,2024.2.4,59.86486106263266,2025-02-06 20h03.21.763671 -0800,
test,inconsistent,4,black,yellow,word,right,800,2000,119,55,1,right,1,0.0036324999999806096,None,1,55,119,3,173.21800360000003,,,,,,,,,173.21080590000003,173.21800360000003,173.36929379999998,173.38846919999997,right,1,0.0036324999999806096,None,906513,001,2025-02-06_20h03.15.209,stroop,2024.2.4,59.86486106263266,2025-02-06 20h03.21.763671 -0800,
test,inconsistent,13,blue,green,word,right,800,2000,120,56,1,left,0,0.04152190000002065,None,1,56,120,12,173.40556280000004,,,,,,,,,173.3974791,173.40556280000004,173.55274830000002,173.60494409999995,left,0,0.04152190000002065,None,906513,001,2025-02-06_20h03.15.209,stroop,2024.2.4,59.86486106263266,2025-02-06 20h03.21.763671 -0800,
test,inconsistent,18,yellow,green,word,right,800,2000,121,57,1,right,1,0.026454199999989214,None,1,57,121,45,173.62031010000004,,,,,,,,,173.61332829999998,173.62031010000004,173.76915060000005,173.80586239999997,right,1,0.026454199999989214,None,906513,001,2025-02-06_20h03.15.209,stroop,2024.2.4,59.86486106263266,2025-02-06 20h03.21.763671 -0800,
test,consistent,1,red,red,word,left,800,2000,122,58,1,left,1,0.05570250000005217,None,1,58,122,28,173.82662820000002,,,,,,,,,173.81529919999997,173.82662820000002,173.96924340000004,174.03778789999996,left,1,0.05570250000005217,None,906513,001,2025-02-06_20h03.15.209,stroop,2024.2.4,59.86486106263266,2025-02-06 20h03.21.763671 -0800,
test,inconsistent,2,blue,red,word,right,800,2000,123,59,1,right,1,0.0012705999999980122,None,1,59,123,1,174.05250189999998,,,,,,,,,174.04327559999996,174.05250189999998,174.2025263,174.20539209999998,right,1,0.0012705999999980122,None,906513,001,2025-02-06_20h03.15.209,stroop,2024.2.4,59.86486106263266,2025-02-06 20h03.21.763671 -0800,
test,inconsistent,11,green,red,word,right,800,2000,124,60,1,left,0,0.06488020000006145,None,1,60,124,10,174.21907789999995,,,,,,,,,174.2085742,174.21907789999995,174.36933789999995,174.43662290000003,left,0,0.06488020000006145,None,906513,001,2025-02-06_20h03.15.209,stroop,2024.2.4,59.86486106263266,2025-02-06 20h03.21.763671 -0800,
test,consistent,28,black,black,word,left,800,2000,125,61,1,right,0,0.027322600000047714,None,1,61,125,27,174.45203569999995,,,,,,,,,174.43941550000005,174.45203569999995,174.6024435,174.63761819999996,right,0,0.027322600000047714,None,906513,001,2025-02-06_20h03.15.209,stroop,2024.2.4,59.86486106263266,2025-02-06 20h03.21.763671 -0800,
test,inconsistent,5,red,blue,word,right,800,2000,126,62,1,left,0,0.07602139999994506,None,1,62,126,4,174.65336599999995,,,,,,,,,174.64709409999995,174.65336599999995,174.80237070000004,174.88929890000003,left,0,0.07602139999994506,None,906513,001,2025-02-06_20h03.15.209,stroop,2024.2.4,59.86486106263266,2025-02-06 20h03.21.763671 -0800,
test,inconsistent,14,red,blue,word,right,800,2000,127,63,1,right,1,0.004030800000009549,None,1,63,127,13,174.9025747,,,,,,,,,174.89179529999996,174.9025747,175.0520098,175.07114389999998,right,1,0.004030800000009549,None,906513,001,2025-02-06_20h03.15.209,stroop,2024.2.4,59.86486106263266,2025-02-06 20h03.21.763671 -0800,
test,consistent,28,black,black,word,left,800,2000,128,0,2,left,1,0.06245750000005046,None,2,0,128,27,175.0852501,,,,,,,,,175.07772540000002,175.0852501,175.23516650000005,175.3030839,left,1,0.06245750000005046,None,906513,001,2025-02-06_20h03.15.209,stroop,2024.2.4,59.86486106263266,2025-02-06 20h03.21.763671 -0800,
test,consistent,26,blue,blue,word,left,800,2000,129,1,2,right,0,0.04346420000001672,None,2,1,129,25,175.3183611,,,,,,,,,175.30707179999996,175.3183611,175.46846120000004,175.5200613,right,0,0.04346420000001672,None,906513,001,2025-02-06_20h03.15.209,stroop,2024.2.4,59.86486106263266,2025-02-06 20h03.21.763671 -0800,
test,consistent,1,red,red,word,left,800,2000,130,2,2,left,1,0.4376464000000624,None,2,2,130,28,175.53517119999998,,,,,,,,,175.52405400000004,175.53517119999998,175.68521379999999,176.13578160000003,left,1,0.4376464000000624,None,906513,001,2025-02-06_20h03.15.209,stroop,2024.2.4,59.86486106263266,2025-02-06 20h03.21.763671 -0800,
test,inconsistent,9,yellow,green,word,right,800,2000,131,3,2,right,1,0.16233009999996284,None,2,3,131,36,176.15145190000004,,,,,,,,,176.13861219999995,176.15145190000004,176.3015635,176.46971630000002,right,1,0.16233009999996284,None,906513,001,2025-02-06_20h03.15.209,stroop,2024.2.4,59.86486106263266,2025-02-06 20h03.21.763671 -0800,
test,inconsistent,24,green,red,word,right,800,2000,132,4,2,right,1,0.10424550000004729,None,2,4,132,51,176.48488860000003,,,,,,,,,176.47567940000005,176.48488860000003,176.63482900000002,176.7527796,right,1,0.10424550000004729,None,906513,001,2025-02-06_20h03.15.209,stroop,2024.2.4,59.86486106263266,2025-02-06 20h03.21.763671 -0800,
test,inconsistent,18,yellow,green,word,right,800,2000,133,5,2,right,1,0.11014520000003358,None,2,5,133,45,176.76804969999995,,,,,,,,,176.7611619,176.76804969999995,176.91798699999998,177.03647340000003,right,1,0.11014520000003358,None,906513,001,2025-02-06_20h03.15.209,stroop,2024.2.4,59.86486106263266,2025-02-06 20h03.21.763671 -0800,
test,inconsistent,1,yellow,green,word,right,800,2000,134,6,2,right,1,0.10615400000006048,None,2,6,134,0,177.05134470000002,,,,,,,,,177.03893339999996,177.05134470000002,177.20124479999998,177.31890330000004,right,1,0.10615400000006048,None,906513,001,2025-02-06_20h03.15.209,stroop,2024.2.4,59.86486106263266,2025-02-06 20h03.21.763671 -0800,
test,consistent,23,black,black,word,left,800,2000,135,7,2,right,0,1.4495488000000023,None,2,7,135,22,177.33447099999995,,,,,,,,,177.3220174,177.33447099999995,177.48493739999998,178.95167769999995,right,0,1.4495488000000023,None,906513,001,2025-02-06_20h03.15.209,stroop,2024.2.4,59.86486106263266,2025-02-06 20h03.21.763671 -0800,
test,consistent,25,red,red,word,left,800,2000,136,8,2,right,0,0.32967010000004393,None,2,8,136,24,178.96707599999996,,,,,,,,,178.9548378,178.96707599999996,179.11740130000004,179.45314190000005,right,0,0.32967010000004393,None,906513,001,2025-02-06_20h03.15.209,stroop,2024.2.4,59.86486106263266,2025-02-06 20h03.21.763671 -0800,
test,inconsistent,23,green,yellow,word,right,800,2000,137,9,2,right,1,0.3623251999999866,None,2,9,137,50,179.46701560000002,,,,,,,,,179.45707880000003,179.46701560000002,179.61748919999997,179.98780019999998,right,1,0.3623251999999866,None,906513,001,2025-02-06_20h03.15.209,stroop,2024.2.4,59.86486106263266,2025-02-06 20h03.21.763671 -0800,
test,inconsistent,14,green,yellow,word,right,800,2000,138,10,2,left,0,0.2883951999999681,None,2,10,138,41,180.00083149999995,,,,,,,,,179.98862939999998,180.00083149999995,180.15014230000003,180.45211030000002,left,0,0.2883951999999681,None,906513,001,2025-02-06_20h03.15.209,stroop,2024.2.4,59.86486106263266,2025-02-06 20h03.21.763671 -0800,
test,consistent,19,green,green,word,left,800,2000,139,11,2,right,0,0.26152239999998983,None,2,11,139,18,180.46716769999995,,,,,,,,,180.45304819999996,180.46716769999995,180.61675380000003,180.88681400000002,right,0,0.26152239999998983,None,906513,001,2025-02-06_20h03.15.209,stroop,2024.2.4,59.86486106263266,2025-02-06 20h03.21.763671 -0800,
test,inconsistent,27,yellow,green,word,right,800,2000,140,12,2,right,1,0.3344736000000239,None,2,12,140,54,180.90922259999996,,,,,,,,,180.89781709999994,180.90922259999996,181.0498104,181.40267720000003,right,1,0.3344736000000239,None,906513,001,2025-02-06_20h03.15.209,stroop,2024.2.4,59.86486106263266,2025-02-06 20h03.21.763671 -0800,
test,inconsistent,8,yellow,blue,word,right,800,2000,141,13,2,left,0,0.28223720000005414,None,2,13,141,7,181.4165645,,,,,,,,,181.40504130000005,181.4165645,181.56645480000003,181.85178709999997,left,0,0.28223720000005414,None,906513,001,2025-02-06_20h03.15.209,stroop,2024.2.4,59.86486106263266,2025-02-06 20h03.21.763671 -0800,
test,consistent,22,green,green,word,left,800,2000,142,14,2,right,0,0.2171994000000268,None,2,14,142,49,181.86889290000005,,,,,,,,,181.85934460000004,181.86889290000005,182.01625380000002,182.23475909999996,right,0,0.2171994000000268,None,906513,001,2025-02-06_20h03.15.209,stroop,2024.2.4,59.86486106263266,2025-02-06 20h03.21.763671 -0800,
test,inconsistent,30,red,yellow,word,right,800,2000,143,15,2,left,0,0.14063900000007834,None,2,15,143,57,182.24984509999996,,,,,,,,,182.24073749999997,182.24984509999996,182.39975220000002,182.5520237,left,0,0.14063900000007834,None,906513,001,2025-02-06_20h03.15.209,stroop,2024.2.4,59.86486106263266,2025-02-06 20h03.21.763671 -0800,
test,inconsistent,10,orange,black,word,right,800,2000,144,16,2,right,1,0.07441100000005463,None,2,16,144,9,182.56933699999996,,,,,,,,,182.55914909999996,182.56933699999996,182.71613459999998,182.800233,right,1,0.07441100000005463,None,906513,001,2025-02-06_20h03.15.209,stroop,2024.2.4,59.86486106263266,2025-02-06 20h03.21.763671 -0800,
test,inconsistent,15,green,red,word,right,800,2000,145,17,2,left,0,0.06617089999997461,None,2,17,145,42,182.8158772,,,,,,,,,182.80525859999995,182.8158772,182.96569170000004,183.03486370000002,left,0,0.06617089999997461,None,906513,001,2025-02-06_20h03.15.209,stroop,2024.2.4,59.86486106263266,2025-02-06 20h03.21.763671 -0800,
test,inconsistent,11,red,green,word,right,800,2000,146,18,2,right,1,0.10495829999990747,None,2,18,146,38,183.0497737,,,,,,,,,183.04050360000002,183.0497737,183.19906120000002,183.3165234,right,1,0.10495829999990747,None,906513,001,2025-02-06_20h03.15.209,stroop,2024.2.4,59.86486106263266,2025-02-06 20h03.21.763671 -0800,
test,inconsistent,7,purple,red,word,right,800,2000,147,19,2,left,0,0.0127889000000323,None,2,19,147,6,183.33234569999996,,,,,,,,,183.31962700000003,183.33234569999996,183.48247510000004,183.50039880000003,left,0,0.0127889000000323,None,906513,001,2025-02-06_20h03.15.209,stroop,2024.2.4,59.86486106263266,2025-02-06 20h03.21.763671 -0800,
test,consistent,27,yellow,yellow,word,left,800,2000,148,20,2,right,0,0.09126279999998133,None,2,20,148,26,183.5155716,,,,,,,,,183.50418589999998,183.5155716,183.66549949999995,183.7663081,right,0,0.09126279999998133,None,906513,001,2025-02-06_20h03.15.209,stroop,2024.2.4,59.86486106263266,2025-02-06 20h03.21.763671 -0800,
test,consistent,24,green,green,word,left,800,2000,149,21,2,right,0,0.30947439999999915,None,2,21,149,23,183.7821148,,,,,,,,,183.76908310000005,183.7821148,183.93262320000002,184.2511162,right,0,0.30947439999999915,None,906513,001,2025-02-06_20h03.15.209,stroop,2024.2.4,59.86486106263266,2025-02-06 20h03.21.763671 -0800,
test,inconsistent,21,red,yellow,word,right,800,2000,150,22,2,right,1,0.3118456000000833,None,2,22,150,48,184.2652665,,,,,,,,,184.25437319999997,184.2652665,184.41530830000005,184.73303030000005,right,1,0.3118456000000833,None,906513,001,2025-02-06_20h03.15.209,stroop,2024.2.4,59.86486106263266,2025-02-06 20h03.21.763671 -0800,
test,consistent,7,yellow,yellow,word,left,800,2000,151,23,2,right,0,0.2620756999999685,None,2,23,151,34,184.7484983,,,,,,,,,184.73568059999997,184.7484983,184.8985171,185.1672319,right,0,0.2620756999999685,None,906513,001,2025-02-06_20h03.15.209,stroop,2024.2.4,59.86486106263266,2025-02-06 20h03.21.763671 -0800,
test,inconsistent,12,black,yellow,word,right,800,2000,152,24,2,right,1,0.27788920000000417,None,2,24,152,11,185.18168659999998,,,,,,,,,185.17595250000005,185.18168659999998,185.33171650000003,185.6160574,right,1,0.27788920000000417,None,906513,001,2025-02-06_20h03.15.209,stroop,2024.2.4,59.86486106263266,2025-02-06 20h03.21.763671 -0800,
test,inconsistent,2,red,green,word,right,800,2000,153,25,2,left,0,0.2615185999999312,None,2,25,153,29,185.63159439999998,,,,,,,,,185.61983119999996,185.63159439999998,185.7817339,186.04902009999995,left,0,0.2615185999999312,None,906513,001,2025-02-06_20h03.15.209,stroop,2024.2.4,59.86486106263266,2025-02-06 20h03.21.763671 -0800,
test,consistent,19,red,red,word,left,800,2000,154,26,2,right,0,0.15635680000002594,None,2,26,154,46,186.06461010000004,,,,,,,,,186.0497416,186.06461010000004,186.19818070000002,186.36751669999995,right,0,0.15635680000002594,None,906513,001,2025-02-06_20h03.15.209,stroop,2024.2.4,59.86486106263266,2025-02-06 20h03.21.763671 -0800,
test,consistent,31,green,green,word,left,800,2000,155,27,2,left,1,0.05350480000004154,None,2,27,155,58,186.38290839999996,,,,,,,,,186.37626240000003,186.38290839999996,186.53148519999996,186.5998209,left,1,0.05350480000004154,None,906513,001,2025-02-06_20h03.15.209,stroop,2024.2.4,59.86486106263266,2025-02-06 20h03.21.763671 -0800,
test,inconsistent,4,black,yellow,word,right,800,2000,156,28,2,right,1,0.05619300000000749,None,2,28,156,3,186.61446240000004,,,,,,,,,186.60572280000002,186.61446240000004,186.764795,186.8334689,right,1,0.05619300000000749,None,906513,001,2025-02-06_20h03.15.209,stroop,2024.2.4,59.86486106263266,2025-02-06 20h03.21.763671 -0800,
test,inconsistent,12,red,yellow,word,right,800,2000,157,29,2,right,1,0.2272078999999394,None,2,29,157,39,186.84792509999994,,,,,,,,,186.8373363,186.84792509999994,186.99863950000002,187.2331625,right,1,0.2272078999999394,None,906513,001,2025-02-06_20h03.15.209,stroop,2024.2.4,59.86486106263266,2025-02-06 20h03.21.763671 -0800,
test,consistent,22,yellow,yellow,word,left,800,2000,158,30,2,left,1,0.02082550000000083,None,2,30,158,21,187.24777339999997,,,,,,,,,187.23823139999996,187.24777339999997,187.39773459999998,187.43341790000005,left,1,0.02082550000000083,None,906513,001,2025-02-06_20h03.15.209,stroop,2024.2.4,59.86486106263266,2025-02-06 20h03.21.763671 -0800,
test,inconsistent,3,red,yellow,word,right,800,2000,159,31,2,right,1,0.15152000000000498,None,2,31,159,30,187.44758359999997,,,,,,,,,187.43928699999998,187.44758359999997,187.5975259,187.7652407,right,1,0.15152000000000498,None,906513,001,2025-02-06_20h03.15.209,stroop,2024.2.4,59.86486106263266,2025-02-06 20h03.21.763671 -0800,
test,inconsistent,6,green,black,word,right,800,2000,160,32,2,right,1,0.3972087999999303,None,2,32,160,5,187.78083929999997,,,,,,,,,187.77124139999995,187.78083929999997,187.93103779999996,188.33148590000002,right,1,0.3972087999999303,None,906513,001,2025-02-06_20h03.15.209,stroop,2024.2.4,59.86486106263266,2025-02-06 20h03.21.763671 -0800,
test,consistent,16,yellow,yellow,word,left,800,2000,161,33,2,left,1,0.20734840000000077,None,2,33,161,43,188.34742479999994,,,,,,,,,188.3351985,188.34742479999994,188.49720510000003,188.71558610000005,left,1,0.20734840000000077,None,906513,001,2025-02-06_20h03.15.209,stroop,2024.2.4,59.86486106263266,2025-02-06 20h03.21.763671 -0800,
test,inconsistent,18,orange,green,word,right,800,2000,162,34,2,right,1,0.16383550000000469,None,2,34,162,17,188.73068670000004,,,,,,,,,188.72196730000002,188.73068670000004,188.88050549999997,189.04895219999997,right,1,0.16383550000000469,None,906513,001,2025-02-06_20h03.15.209,stroop,2024.2.4,59.86486106263266,2025-02-06 20h03.21.763671 -0800,
test,inconsistent,15,purple,black,word,right,800,2000,163,35,2,left,0,0.2700228999999581,None,2,35,163,14,189.06401480000005,,,,,,,,,189.0562673,189.06401480000005,189.21403070000002,189.500474,left,0,0.2700228999999581,None,906513,001,2025-02-06_20h03.15.209,stroop,2024.2.4,59.86486106263266,2025-02-06 20h03.21.763671 -0800,
test,inconsistent,36,yellow,green,word,right,800,2000,164,36,2,right,1,0.06280619999995452,None,2,36,164,63,189.51746399999996,,,,,,,,,189.51080919999998,189.51746399999996,189.6635263,189.734173,right,1,0.06280619999995452,None,906513,001,2025-02-06_20h03.15.209,stroop,2024.2.4,59.86486106263266,2025-02-06 20h03.21.763671 -0800,
test,inconsistent,17,yellow,red,word,right,800,2000,165,37,2,left,0,0.01041269999996075,None,2,37,165,44,189.74718000000001,,,,,,,,,189.73651839999997,189.74718000000001,189.89707589999995,189.91496279999996,left,0,0.01041269999996075,None,906513,001,2025-02-06_20h03.15.209,stroop,2024.2.4,59.86486106263266,2025-02-06 20h03.21.763671 -0800,
test,inconsistent,29,red,green,word,right,800,2000,166,38,2,left,0,0.22101310000005014,None,2,38,166,56,189.9303468,,,,,,,,,189.91920680000004,189.9303468,190.0797372,190.31526260000004,left,0,0.22101310000005014,None,906513,001,2025-02-06_20h03.15.209,stroop,2024.2.4,59.86486106263266,2025-02-06 20h03.21.763671 -0800,
test,consistent,28,red,red,word,left,800,2000,167,39,2,right,0,0.4598389000000225,None,2,39,167,55,190.3303576,,,,,,,,,190.31635160000002,190.3303576,190.48050129999996,190.9489183,right,0,0.4598389000000225,None,906513,001,2025-02-06_20h03.15.209,stroop,2024.2.4,59.86486106263266,2025-02-06 20h03.21.763671 -0800,
test,consistent,4,green,green,word,left,800,2000,168,40,2,left,1,0.2211801999999352,None,2,40,168,31,190.9629584,,,,,,,,,190.9556842,190.9629584,191.11295769999998,191.3481205,left,1,0.2211801999999352,None,906513,001,2025-02-06_20h03.15.209,stroop,2024.2.4,59.86486106263266,2025-02-06 20h03.21.763671 -0800,
test,inconsistent,2,blue,red,word,right,800,2000,169,41,2,left,0,0.312800300000049,None,2,41,169,1,191.3656348,,,,,,,,,191.35558469999995,191.3656348,191.51335799999998,191.8323085,left,0,0.312800300000049,None,906513,001,2025-02-06_20h03.15.209,stroop,2024.2.4,59.86486106263266,2025-02-06 20h03.21.763671 -0800,
test,inconsistent,26,yellow,red,word,right,800,2000,170,42,2,right,1,0.027648699999986093,None,2,42,170,53,191.84940209999996,,,,,,,,,191.83904520000004,191.84940209999996,191.99610290000004,192.03119410000005,right,1,0.027648699999986093,None,906513,001,2025-02-06_20h03.15.209,stroop,2024.2.4,59.86486106263266,2025-02-06 20h03.21.763671 -0800,
test,inconsistent,16,green,blue,word,right,800,2000,171,43,2,right,1,0.4115319999999656,None,2,43,171,15,192.04636869999996,,,,,,,,,192.03568950000005,192.04636869999996,192.19628700000004,192.61648680000002,right,1,0.4115319999999656,None,906513,001,2025-02-06_20h03.15.209,stroop,2024.2.4,59.86486106263266,2025-02-06 20h03.21.763671 -0800,
test,consistent,13,green,green,word,left,800,2000,172,44,2,left,1,0.0012148000000706816,None,2,44,172,40,192.62927640000004,,,,,,,,,192.61849660000001,192.62927640000004,192.77976800000005,192.7987255,left,1,0.0012148000000706816,None,906513,001,2025-02-06_20h03.15.209,stroop,2024.2.4,59.86486106263266,2025-02-06 20h03.21.763671 -0800,
test,consistent,25,yellow,yellow,word,left,800,2000,173,45,2,right,0,0.11727700000005825,None,2,45,173,52,192.8170409,,,,,,,,,192.80873530000002,192.8170409,192.9626298,193.08263419999997,right,0,0.11727700000005825,None,906513,001,2025-02-06_20h03.15.209,stroop,2024.2.4,59.86486106263266,2025-02-06 20h03.21.763671 -0800,
test,inconsistent,3,orange,blue,word,right,800,2000,174,46,2,right,1,0.28788059999999405,None,2,46,174,2,193.09849360000004,,,,,,,,,193.09145210000003,193.09849360000004,193.2455607,193.54702019999996,right,1,0.28788059999999405,None,906513,001,2025-02-06_20h03.15.209,stroop,2024.2.4,59.86486106263266,2025-02-06 20h03.21.763671 -0800,
test,inconsistent,8,yellow,red,word,right,800,2000,175,47,2,right,1,0.3269641000000547,None,2,47,175,35,193.56227510000002,,,,,,,,,193.55071030000005,193.56227510000002,193.71209240000002,194.04623220000002,right,1,0.3269641000000547,None,906513,001,2025-02-06_20h03.15.209,stroop,2024.2.4,59.86486106263266,2025-02-06 20h03.21.763671 -0800,
test,inconsistent,35,yellow,red,word,right,800,2000,176,48,2,right,1,0.27627159999997275,None,2,48,176,62,194.0619102,,,,,,,,,194.0469,194.0619102,194.21195849999998,194.49627070000003,right,1,0.27627159999997275,None,906513,001,2025-02-06_20h03.15.209,stroop,2024.2.4,59.86486106263266,2025-02-06 20h03.21.763671 -0800,
test,consistent,34,yellow,yellow,word,left,800,2000,177,49,2,left,1,0.14338889999999083,None,2,49,177,61,194.5116661,,,,,,,,,194.49695330000003,194.5116661,194.66162130000004,194.81332160000005,left,1,0.14338889999999083,None,906513,001,2025-02-06_20h03.15.209,stroop,2024.2.4,59.86486106263266,2025-02-06 20h03.21.763671 -0800,
test,consistent,10,red,red,word,left,800,2000,178,50,2,right,0,0.14535330000001068,None,2,50,178,37,194.82851390000002,,,,,,,,,194.81602819999995,194.82851390000002,194.9782561,195.12946570000003,right,0,0.14535330000001068,None,906513,001,2025-02-06_20h03.15.209,stroop,2024.2.4,59.86486106263266,2025-02-06 20h03.21.763671 -0800,
test,inconsistent,5,green,yellow,word,right,800,2000,179,51,2,left,0,0.9145517000000609,None,2,51,179,32,195.1449419,,,,,,,,,195.13220540000003,195.1449419,195.29485819999996,196.21205879999997,left,0,0.9145517000000609,None,906513,001,2025-02-06_20h03.15.209,stroop,2024.2.4,59.86486106263266,2025-02-06 20h03.21.763671 -0800,
test,inconsistent,5,red,blue,word,right,800,2000,180,52,2,left,0,0.15214610000009543,None,2,52,180,4,196.2280139,,,,,,,,,196.2149361,196.2280139,196.36177460000005,196.53014790000003,left,0,0.15214610000009543,None,906513,001,2025-02-06_20h03.15.209,stroop,2024.2.4,59.86486106263266,2025-02-06 20h03.21.763671 -0800,
test,inconsistent,20,red,green,word,right,800,2000,181,53,2,right,1,0.12767510000003313,None,2,53,181,47,196.54490249999998,,,,,,,,,196.53133210000004,196.54490249999998,196.69480660000005,196.82955510000005,right,1,0.12767510000003313,None,906513,001,2025-02-06_20h03.15.209,stroop,2024.2.4,59.86486106263266,2025-02-06 20h03.21.763671 -0800,
test,inconsistent,32,green,yellow,word,right,800,2000,182,54,2,left,0,0.1592760000000908,None,2,54,182,59,196.84467809999995,,,,,,,,,196.8345089,196.84467809999995,196.99480239999997,197.16477719999995,left,0,0.1592760000000908,None,906513,001,2025-02-06_20h03.15.209,stroop,2024.2.4,59.86486106263266,2025-02-06 20h03.21.763671 -0800,
test,inconsistent,6,green,red,word,right,800,2000,183,55,2,right,1,0.1476230000000669,None,2,55,183,33,197.1777881,,,,,,,,,197.16717020000004,197.1777881,197.32780180000003,197.47942500000005,right,1,0.1476230000000669,None,906513,001,2025-02-06_20h03.15.209,stroop,2024.2.4,59.86486106263266,2025-02-06 20h03.21.763671 -0800,
test,consistent,20,red,red,word,left,800,2000,184,56,2,right,0,0.1632359999999835,None,2,56,184,19,197.49589829999996,,,,,,,,,197.48885539999998,197.49589829999996,197.64525899999995,197.813291,right,0,0.1632359999999835,None,906513,001,2025-02-06_20h03.15.209,stroop,2024.2.4,59.86486106263266,2025-02-06 20h03.21.763671 -0800,
test,inconsistent,33,green,red,word,right,800,2000,185,57,2,left,0,0.02287100000000919,None,2,57,185,60,197.82858089999996,,,,,,,,,197.82050869999995,197.82858089999996,197.97742580000005,198.01440159999999,left,0,0.02287100000000919,None,906513,001,2025-02-06_20h03.15.209,stroop,2024.2.4,59.86486106263266,2025-02-06 20h03.21.763671 -0800,
test,inconsistent,11,green,red,word,right,800,2000,186,58,2,left,0,1.8949378999999453,None,2,58,186,10,198.0277865,,,,,,,,,198.01644370000002,198.0277865,198.17780399999998,200.0787568,left,0,1.8949378999999453,None,906513,001,2025-02-06_20h03.15.209,stroop,2024.2.4,59.86486106263266,2025-02-06 20h03.21.763671 -0800,
test,inconsistent,9,red,green,word,right,800,2000,187,59,2,right,1,0.3503687999999556,None,2,59,187,8,200.0939887,,,,,,,,,200.08604399999996,200.0939887,200.24352649999997,200.5957914,right,1,0.3503687999999556,None,906513,001,2025-02-06_20h03.15.209,stroop,2024.2.4,59.86486106263266,2025-02-06 20h03.21.763671 -0800,
test,inconsistent,14,red,blue,word,right,800,2000,188,60,2,left,0,0.29556479999996554,None,2,60,188,13,200.6102679,,,,,,,,,200.5964965,200.6102679,200.75994180000004,201.06160440000002,left,0,0.29556479999996554,None,906513,001,2025-02-06_20h03.15.209,stroop,2024.2.4,59.86486106263266,2025-02-06 20h03.21.763671 -0800,
test,consistent,21,blue,blue,word,left,800,2000,189,61,2,right,0,0.20427229999995689,None,2,61,189,20,201.07654699999995,,,,,,,,,201.067026,201.07654699999995,201.2268724,201.44723679999998,right,0,0.20427229999995689,None,906513,001,2025-02-06_20h03.15.209,stroop,2024.2.4,59.86486106263266,2025-02-06 20h03.21.763671 -0800,
test,inconsistent,13,blue,green,word,right,800,2000,190,62,2,left,0,0.4043671000000586,None,2,62,190,12,201.46011649999997,,,,,,,,,201.44979849999999,201.46011649999997,201.60949220000003,202.02880629999999,left,0,0.4043671000000586,None,906513,001,2025-02-06_20h03.15.209,stroop,2024.2.4,59.86486106263266,2025-02-06 20h03.21.763671 -0800,
test,inconsistent,17,blue,red,word,right,800,2000,191,63,2,right,1,0.08886100000006536,None,2,63,191,16,202.04322429999996,,,,,,,,,202.03043780000002,202.04322429999996,202.19310509999997,202.29459230000003,right,1,0.08886100000006536,None,906513,001,2025-02-06_20h03.15.209,stroop,2024.2.4,59.86486106263266,2025-02-06 20h03.21.763671 -0800,
test,inconsistent,1,yellow,green,word,right,800,2000,192,0,3,left,0,0.1449847999999747,None,3,0,192,0,202.31168959999997,,,,,,,,,202.29975359999997,202.31168959999997,202.4593438,202.61351110000004,left,0,0.1449847999999747,None,906513,001,2025-02-06_20h03.15.209,stroop,2024.2.4,59.86486106263266,2025-02-06 20h03.21.763671 -0800,
test,inconsistent,4,black,yellow,word,right,800,2000,193,1,3,right,1,0.20626119999997172,None,3,1,193,3,202.63342640000002,,,,,,,,,202.62455740000001,202.63342640000002,202.77561629999997,202.99401170000004,right,1,0.20626119999997172,None,906513,001,2025-02-06_20h03.15.209,stroop,2024.2.4,59.86486106263266,2025-02-06 20h03.21.763671 -0800,
test,consistent,13,green,green,word,left,800,2000,194,2,3,left,1,0.3096072999999251,None,3,2,194,40,203.00891859999996,,,,,,,,,202.99680289999998,203.00891859999996,203.1588092,203.4775993,left,1,0.3096072999999251,None,906513,001,2025-02-06_20h03.15.209,stroop,2024.2.4,59.86486106263266,2025-02-06 20h03.21.763671 -0800,
test,inconsistent,33,green,red,word,right,800,2000,195,3,3,right,1,0.7131259000000227,None,3,3,195,60,203.49230900000003,,,,,,,,,203.4795069,203.49230900000003,203.64230479999998,204.36019600000003,right,1,0.7131259000000227,None,906513,001,2025-02-06_20h03.15.209,stroop,2024.2.4,59.86486106263266,2025-02-06 20h03.21.763671 -0800,
test,consistent,26,blue,blue,word,left,800,2000,196,4,3,left,1,0.30896560000007867,None,3,4,196,25,204.37532860000005,,,,,,,,,204.36546619999996,204.37532860000005,204.52563070000002,204.84382060000002,left,1,0.30896560000007867,None,906513,001,2025-02-06_20h03.15.209,stroop,2024.2.4,59.86486106263266,2025-02-06 20h03.21.763671 -0800,
test,inconsistent,2,red,green,word,right,800,2000,197,5,3,right,1,0.25523389999989377,None,3,5,197,29,204.86255150000005,,,,,,,,,204.85123300000004,204.86255150000005,205.00835720000003,205.27582420000005,right,1,0.25523389999989377,None,906513,001,2025-02-06_20h03.15.209,stroop,2024.2.4,59.86486106263266,2025-02-06 20h03.21.763671 -0800,
test,inconsistent,26,yellow,red,word,right,800,2000,198,6,3,left,0,0.03440330000000813,None,3,6,198,53,205.29154050000005,,,,,,,,,205.27843360000003,205.29154050000005,205.42519580000004,205.47641849999997,left,0,0.03440330000000813,None,906513,001,2025-02-06_20h03.15.209,stroop,2024.2.4,59.86486106263266,2025-02-06 20h03.21.763671 -0800,
test,inconsistent,36,yellow,green,word,right,800,2000,199,7,3,right,1,0.08054829999991853,None,3,7,199,63,205.4915186,,,,,,,,,205.47708110000002,205.4915186,205.6412853,205.725616,right,1,0.08054829999991853,None,906513,001,2025-02-06_20h03.15.209,stroop,2024.2.4,59.86486106263266,2025-02-06 20h03.21.763671 -0800,
test,consistent,31,green,green,word,left,800,2000,200,8,3,left,1,0.14501269999993838,None,3,8,200,58,205.74128190000005,,,,,,,,,205.7284765,205.74128190000005,205.89137120000004,206.04262409999995,left,1,0.14501269999993838,None,906513,001,2025-02-06_20h03.15.209,stroop,2024.2.4,59.86486106263266,2025-02-06 20h03.21.763671 -0800,
test,consistent,19,green,green,word,left,800,2000,201,9,3,right,0,0.056868799999961084,None,3,9,201,18,206.05795510000002,,,,,,,,,206.04331150000002,206.05795510000002,206.20780369999994,206.27576870000001,right,0,0.056868799999961084,None,906513,001,2025-02-06_20h03.15.209,stroop,2024.2.4,59.86486106263266,2025-02-06 20h03.21.763671 -0800,
test,consistent,23,black,black,word,left,800,2000,202,10,3,left,1,0.024768200000039542,None,3,10,202,22,206.29197749999997,,,,,,,,,206.28386970000003,206.29197749999997,206.44157839999997,206.4754843,left,1,0.024768200000039542,None,906513,001,2025-02-06_20h03.15.209,stroop,2024.2.4,59.86486106263266,2025-02-06 20h03.21.763671 -0800,
test,inconsistent,27,yellow,green,word,right,800,2000,203,11,3,right,1,0.24597899999992023,None,3,11,203,54,206.49120139999997,,,,,,,,,206.47822979999995,206.49120139999997,206.6412178,206.89307779999996,right,1,0.24597899999992023,None,906513,001,2025-02-06_20h03.15.209,stroop,2024.2.4,59.86486106263266,2025-02-06 20h03.21.763671 -0800,
test,inconsistent,8,yellow,red,word,right,800,2000,204,12,3,right,1,0.2109459999999217,None,3,12,204,35,206.90783919999996,,,,,,,,,206.89424860000003,206.90783919999996,207.05778260000005,207.27637299999998,right,1,0.2109459999999217,None,906513,001,2025-02-06_20h03.15.209,stroop,2024.2.4,59.86486106263266,2025-02-06 20h03.21.763671 -0800,
test,consistent,22,yellow,yellow,word,left,800,2000,205,13,3,right,0,0.27914739999994254,None,3,13,205,21,207.29091109999996,,,,,,,,,207.2781855,207.29091109999996,207.44071190000005,207.72594880000003,right,0,0.27914739999994254,None,906513,001,2025-02-06_20h03.15.209,stroop,2024.2.4,59.86486106263266,2025-02-06 20h03.21.763671 -0800,
test,inconsistent,2,blue,red,word,right,800,2000,206,14,3,right,1,0.23363380000000689,None,3,14,206,1,207.74074379999996,,,,,,,,,207.73143320000003,207.74074379999996,207.89070810000004,208.12755650000003,right,1,0.23363380000000689,None,906513,001,2025-02-06_20h03.15.209,stroop,2024.2.4,59.86486106263266,2025-02-06 20h03.21.763671 -0800,
test,inconsistent,24,green,red,word,right,800,2000,207,15,3,right,1,0.20809320000000753,None,3,15,207,51,208.14438839999997,,,,,,,,,208.13671930000004,208.14438839999997,208.29062779999998,208.5089072,right,1,0.20809320000000753,None,906513,001,2025-02-06_20h03.15.209,stroop,2024.2.4,59.86486106263266,2025-02-06 20h03.21.763671 -0800,
test,inconsistent,7,purple,red,word,right,800,2000,208,16,3,right,1,0.2345980000000054,None,3,16,208,6,208.52611970000004,,,,,,,,,208.51508510000002,208.52611970000004,208.6736848,208.92478850000003,right,1,0.2345980000000054,None,906513,001,2025-02-06_20h03.15.209,stroop,2024.2.4,59.86486106263266,2025-02-06 20h03.21.763671 -0800,
test,consistent,28,black,black,word,left,800,2000,209,17,3,right,0,0.17612559999997757,None,3,17,209,27,208.94022520000004,,,,,,,,,208.92854200000005,208.94022520000004,209.09015900000003,209.2745372,right,0,0.17612559999997757,None,906513,001,2025-02-06_20h03.15.209,stroop,2024.2.4,59.86486106263266,2025-02-06 20h03.21.763671 -0800,
test,inconsistent,6,green,black,word,right,800,2000,210,18,3,right,1,0.16748790000008285,None,3,18,210,5,209.29039559999995,,,,,,,,,209.27900240000002,209.29039559999995,209.44047949999998,209.62448120000005,right,1,0.16748790000008285,None,906513,001,2025-02-06_20h03.15.209,stroop,2024.2.4,59.86486106263266,2025-02-06 20h03.21.763671 -0800,
test,inconsistent,17,blue,red,word,right,800,2000,211,19,3,right,1,0.2848808999999619,None,3,19,211,16,209.63994199999996,,,,,,,,,209.62789960000003,209.63994199999996,209.78996880000005,210.0908265,right,1,0.2848808999999619,None,906513,001,2025-02-06_20h03.15.209,stroop,2024.2.4,59.86486106263266,2025-02-06 20h03.21.763671 -0800,
test,inconsistent,11,red,green,word,right,800,2000,212,20,3,left,0,0.0016176999999970576,None,3,20,212,38,210.1071622,,,,,,,,,210.09435849999994,210.1071622,210.24020490000004,210.2585876,left,0,0.0016176999999970576,None,906513,001,2025-02-06_20h03.15.209,stroop,2024.2.4,59.86486106263266,2025-02-06 20h03.21.763671 -0800,
test,inconsistent,14,red,blue,word,right,800,2000,213,21,3,right,1,0.06951709999998457,None,3,21,213,13,210.27311249999997,,,,,,,,,210.2601335,210.27311249999997,210.42280050000005,210.50912680000005,right,1,0.06951709999998457,None,906513,001,2025-02-06_20h03.15.209,stroop,2024.2.4,59.86486106263266,2025-02-06 20h03.21.763671 -0800,
test,inconsistent,11,green,red,word,right,800,2000,214,22,3,right,1,0.22241509999992104,None,3,22,214,10,210.52397990000003,,,,,,,,,210.51620789999998,210.52397990000003,210.6733115,210.9092377,right,1,0.22241509999992104,None,906513,001,2025-02-06_20h03.15.209,stroop,2024.2.4,59.86486106263266,2025-02-06 20h03.21.763671 -0800,
test,consistent,20,red,red,word,left,800,2000,215,23,3,right,0,0.24962749999997413,None,3,23,215,19,210.9258325,,,,,,,,,210.91755500000005,210.9258325,211.07298310000004,211.32447299999995,right,0,0.24962749999997413,None,906513,001,2025-02-06_20h03.15.209,stroop,2024.2.4,59.86486106263266,2025-02-06 20h03.21.763671 -0800,
test,inconsistent,35,yellow,red,word,right,800,2000,216,24,3,left,0,0.006035500000052707,None,3,24,216,62,211.33947470000004,,,,,,,,,211.3305658,211.33947470000004,211.48973210000003,211.50778180000003,left,0,0.006035500000052707,None,906513,001,2025-02-06_20h03.15.209,stroop,2024.2.4,59.86486106263266,2025-02-06 20h03.21.763671 -0800,
test,inconsistent,30,red,yellow,word,right,800,2000,217,25,3,right,1,0.08966700000007677,None,3,25,217,57,211.52296700000005,,,,,,,,,211.51145619999994,211.52296700000005,211.67317350000002,211.77474039999998,right,1,0.08966700000007677,None,906513,001,2025-02-06_20h03.15.209,stroop,2024.2.4,59.86486106263266,2025-02-06 20h03.21.763671 -0800,
test,inconsistent,3,red,yellow,word,right,800,2000,218,26,3,left,0,0.0554932000000008,None,3,26,218,30,211.78955260000004,,,,,,,,,211.77673520000002,211.78955260000004,211.93954860000002,212.00857960000002,left,0,0.0554932000000008,None,906513,001,2025-02-06_20h03.15.209,stroop,2024.2.4,59.86486106263266,2025-02-06 20h03.21.763671 -0800,
test,inconsistent,18,yellow,green,word,right,800,2000,219,27,3,right,1,0.04418820000000778,None,3,27,219,45,212.02281299999999,,,,,,,,,212.01526029999997,212.02281299999999,212.17322459999997,212.22457179999998,right,1,0.04418820000000778,None,906513,001,2025-02-06_20h03.15.209,stroop,2024.2.4,59.86486106263266,2025-02-06 20h03.21.763671 -0800,
test,inconsistent,18,orange,green,word,right,800,2000,220,28,3,left,0,0.17373639999993884,None,3,28,220,17,212.23918120000002,,,,,,,,,212.23156539999997,212.23918120000002,212.38901849999996,212.57647419999995,left,0,0.17373639999993884,None,906513,001,2025-02-06_20h03.15.209,stroop,2024.2.4,59.86486106263266,2025-02-06 20h03.21.763671 -0800,
test,inconsistent,17,yellow,red,word,right,800,2000,221,29,3,right,1,0.025690899999972316,None,3,29,221,44,212.59584239999998,,,,,,,,,212.5862712,212.59584239999998,212.73896970000004,212.77507099999997,right,1,0.025690899999972316,None,906513,001,2025-02-06_20h03.15.209,stroop,2024.2.4,59.86486106263266,2025-02-06 20h03.21.763671 -0800,
test,inconsistent,10,orange,black,word,right,800,2000,222,30,3,right,1,0.17555400000003374,None,3,30,222,9,212.79570989999996,,,,,,,,,212.78503080000002,212.79570989999996,212.93877979999996,213.12311889999995,right,1,0.17555400000003374,None,906513,001,2025-02-06_20h03.15.209,stroop,2024.2.4,59.86486106263266,2025-02-06 20h03.21.763671 -0800,
test,consistent,25,red,red,word,left,800,2000,223,31,3,left,1,0.1420153000000255,None,3,31,223,24,213.13875149999996,,,,,,,,,213.1265494,213.13875149999996,213.2888436,213.4398501,left,1,0.1420153000000255,None,906513,001,2025-02-06_20h03.15.209,stroop,2024.2.4,59.86486106263266,2025-02-06 20h03.21.763671 -0800,
test,inconsistent,21,red,yellow,word,right,800,2000,224,32,3,right,1,0.019219299999917894,None,3,32,224,48,213.45541529999997,,,,,,,,,213.44054680000005,213.45541529999997,213.60525439999998,213.64015479999995,right,1,0.019219299999917894,None,906513,001,2025-02-06_20h03.15.209,stroop,2024.2.4,59.86486106263266,2025-02-06 20h03.21.763671 -0800,
test,inconsistent,12,red,yellow,word,right,800,2000,225,33,3,right,1,0.1367930000000115,None,3,33,225,39,213.6553488,,,,,,,,,213.64087820000003,213.6553488,213.80529599999994,213.957067,right,1,0.1367930000000115,None,906513,001,2025-02-06_20h03.15.209,stroop,2024.2.4,59.86486106263266,2025-02-06 20h03.21.763671 -0800,
test,consistent,19,red,red,word,left,800,2000,226,34,3,left,1,0.14241529999992508,None,3,34,226,46,213.9718654,,,,,,,,,213.9581162,213.9718654,214.12189570000004,214.27434599999998,left,1,0.14241529999992508,None,906513,001,2025-02-06_20h03.15.209,stroop,2024.2.4,59.86486106263266,2025-02-06 20h03.21.763671 -0800,
test,inconsistent,6,green,red,word,right,800,2000,227,35,3,right,1,0.038686399999960486,None,3,35,227,33,214.28856430000002,,,,,,,,,214.28022059999995,214.28856430000002,214.4376428,214.48973519999998,right,1,0.038686399999960486,None,906513,001,2025-02-06_20h03.15.209,stroop,2024.2.4,59.86486106263266,2025-02-06 20h03.21.763671 -0800,
test,inconsistent,5,red,blue,word,right,800,2000,228,36,3,right,1,0.08392109999999775,None,3,36,228,4,214.50547690000002,,,,,,,,,214.49240300000002,214.50547690000002,214.65523349999995,214.75613960000004,right,1,0.08392109999999775,None,906513,001,2025-02-06_20h03.15.209,stroop,2024.2.4,59.86486106263266,2025-02-06 20h03.21.763671 -0800,
test,consistent,22,green,green,word,left,800,2000,229,37,3,left,1,0.04822009999998045,None,3,37,229,49,214.7715976,,,,,,,,,214.7593304,214.7715976,214.92145799999997,214.97228239999998,left,1,0.04822009999998045,None,906513,001,2025-02-06_20h03.15.209,stroop,2024.2.4,59.86486106263266,2025-02-06 20h03.21.763671 -0800,
test,consistent,1,red,red,word,left,800,2000,230,38,3,right,0,0.10655450000001565,None,3,38,230,28,214.98812779999997,,,,,,,,,214.97546240000003,214.98812779999997,215.13814410000003,215.25572930000004,right,0,0.10655450000001565,None,906513,001,2025-02-06_20h03.15.209,stroop,2024.2.4,59.86486106263266,2025-02-06 20h03.21.763671 -0800,
test,inconsistent,5,green,yellow,word,right,800,2000,231,39,3,right,1,0.11169840000002296,None,3,39,231,32,215.27127290000004,,,,,,,,,215.25874689999995,215.27127290000004,215.42133359999997,215.5417253,right,1,0.11169840000002296,None,906513,001,2025-02-06_20h03.15.209,stroop,2024.2.4,59.86486106263266,2025-02-06 20h03.21.763671 -0800,
test,consistent,28,red,red,word,left,800,2000,232,40,3,left,1,0.05743500000005497,None,3,40,232,55,215.56054839999996,,,,,,,,,215.55169719999998,215.56054839999996,215.70507730000003,215.77291459999998,left,1,0.05743500000005497,None,906513,001,2025-02-06_20h03.15.209,stroop,2024.2.4,59.86486106263266,2025-02-06 20h03.21.763671 -0800,
test,inconsistent,14,green,yellow,word,right,800,2000,233,41,3,right,1,0.530897600000003,None,3,41,233,41,215.78834149999994,,,,,,,,,215.77939109999994,215.78834149999994,215.93804240000003,216.47316040000004,right,1,0.530897600000003,None,906513,001,2025-02-06_20h03.15.209,stroop,2024.2.4,59.86486106263266,2025-02-06 20h03.21.763671 -0800,
test,consistent,10,red,red,word,left,800,2000,234,42,3,left,1,0.3221862999999985,None,3,42,234,37,216.49530339999995,,,,,,,,,216.48349960000002,216.49530339999995,216.6380999,216.9737194,left,1,0.3221862999999985,None,906513,001,2025-02-06_20h03.15.209,stroop,2024.2.4,59.86486106263266,2025-02-06 20h03.21.763671 -0800,
test,inconsistent,15,green,red,word,right,800,2000,235,43,3,right,1,0.15075389999992694,None,3,43,235,42,216.99117199999995,,,,,,,,,216.98245179999998,216.99117199999995,217.13759480000004,217.30608809999995,right,1,0.15075389999992694,None,906513,001,2025-02-06_20h03.15.209,stroop,2024.2.4,59.86486106263266,2025-02-06 20h03.21.763671 -0800,
test,inconsistent,9,yellow,green,word,right,800,2000,236,44,3,right,1,2.2867641000000276,None,3,44,236,36,217.32449830000002,,,,,,,,,217.3159847,217.32449830000002,217.47068210000003,219.77108979999997,right,1,2.2867641000000276,None,906513,001,2025-02-06_20h03.15.209,stroop,2024.2.4,59.86486106263266,2025-02-06 20h03.21.763671 -0800,
test,consistent,4,green,green,word,left,800,2000,237,45,3,None,0,,,3,45,237,31,219.78669580000002,,,,,,,,,219.7742854,219.78669580000002,219.93683430000004,224.76885090000002,None,0,,,906513,001,2025-02-06_20h03.15.209,stroop,2024.2.4,59.86486106263266,2025-02-06 20h03.21.763671 -0800,
test,inconsistent,20,red,green,word,right,800,2000,238,46,3,right,1,1.2339474999999993,None,3,46,238,47,224.78479939999994,,,,,,,,,224.77138529999996,224.78479939999994,224.93523220000003,226.18768329999995,right,1,1.2339474999999993,None,906513,001,2025-02-06_20h03.15.209,stroop,2024.2.4,59.86486106263266,2025-02-06 20h03.21.763671 -0800,
test,inconsistent,15,purple,black,word,right,800,2000,239,47,3,left,0,0.2807845999999472,None,3,47,239,14,226.20968720000002,,,,,,,,,226.20063929999998,226.20968720000002,226.35145429999994,226.63831609999994,left,0,0.2807845999999472,None,906513,001,2025-02-06_20h03.15.209,stroop,2024.2.4,59.86486106263266,2025-02-06 20h03.21.763671 -0800,
test,inconsistent,32,green,yellow,word,right,800,2000,240,48,3,right,1,0.10344499999996515,None,3,48,240,59,226.65874779999996,,,,,,,,,226.6482133,226.65874779999996,226.80080289999995,226.91994129999995,right,1,0.10344499999996515,None,906513,001,2025-02-06_20h03.15.209,stroop,2024.2.4,59.86486106263266,2025-02-06 20h03.21.763671 -0800,
test,consistent,25,yellow,yellow,word,left,800,2000,241,49,3,left,1,0.015719300000000658,None,3,49,241,52,226.93435389999996,,,,,,,,,226.9275614,226.93435389999996,227.0841251,227.10312489999995,left,1,0.015719300000000658,None,906513,001,2025-02-06_20h03.15.209,stroop,2024.2.4,59.86486106263266,2025-02-06 20h03.21.763671 -0800,
test,inconsistent,12,black,yellow,word,right,800,2000,242,50,3,right,1,0.4299257000000125,None,3,50,242,11,227.12298019999997,,,,,,,,,227.11253029999995,227.12298019999997,227.26772439999996,227.70229950000004,right,1,0.4299257000000125,None,906513,001,2025-02-06_20h03.15.209,stroop,2024.2.4,59.86486106263266,2025-02-06 20h03.21.763671 -0800,
test,inconsistent,29,red,green,word,right,800,2000,243,51,3,left,0,0.1465066000000661,None,3,51,243,56,227.717019,,,,,,,,,227.70771180000003,227.717019,227.8671109,228.02098159999997,left,0,0.1465066000000661,None,906513,001,2025-02-06_20h03.15.209,stroop,2024.2.4,59.86486106263266,2025-02-06 20h03.21.763671 -0800,
test,consistent,27,yellow,yellow,word,left,800,2000,244,52,3,right,0,0.17329770000003464,None,3,52,244,26,228.03356179999997,,,,,,,,,228.02590149999997,228.03356179999997,228.18354749999997,228.3705756,right,0,0.17329770000003464,None,906513,001,2025-02-06_20h03.15.209,stroop,2024.2.4,59.86486106263266,2025-02-06 20h03.21.763671 -0800,
test,inconsistent,3,orange,blue,word,right,800,2000,245,53,3,left,0,0.19438390000004802,None,3,53,245,2,228.38950389999997,,,,,,,,,228.38167949999996,228.38950389999997,228.53366,228.73565820000005,left,0,0.19438390000004802,None,906513,001,2025-02-06_20h03.15.209,stroop,2024.2.4,59.86486106263266,2025-02-06 20h03.21.763671 -0800,
test,consistent,24,green,green,word,left,800,2000,246,54,3,right,0,0.22935900000004494,None,3,54,246,23,228.75487819999995,,,,,,,,,228.7452325,228.75487819999995,228.90037509999996,229.1347219,right,0,0.22935900000004494,None,906513,001,2025-02-06_20h03.15.209,stroop,2024.2.4,59.86486106263266,2025-02-06 20h03.21.763671 -0800,
test,inconsistent,8,yellow,blue,word,right,800,2000,247,55,3,left,0,0.33648379999999634,None,3,55,247,7,229.15014809999997,,,,,,,,,229.13741409999994,229.15014809999997,229.3001986,229.65271349999995,left,0,0.33648379999999634,None,906513,001,2025-02-06_20h03.15.209,stroop,2024.2.4,59.86486106263266,2025-02-06 20h03.21.763671 -0800,
test,inconsistent,16,green,blue,word,right,800,2000,248,56,3,right,1,0.20090540000001056,None,3,56,248,15,229.66775279999996,,,,,,,,,229.66157400000003,229.66775279999996,229.81628700000005,230.01847219999996,right,1,0.20090540000001056,None,906513,001,2025-02-06_20h03.15.209,stroop,2024.2.4,59.86486106263266,2025-02-06 20h03.21.763671 -0800,
test,inconsistent,9,red,green,word,right,800,2000,249,57,3,left,0,0.13999660000001768,None,3,57,249,8,230.03287900000004,,,,,,,,,230.02491100000003,230.03287900000004,230.18288709999996,230.33560070000004,left,0,0.13999660000001768,None,906513,001,2025-02-06_20h03.15.209,stroop,2024.2.4,59.86486106263266,2025-02-06 20h03.21.763671 -0800,
test,consistent,21,blue,blue,word,left,800,2000,250,58,3,right,0,0.18613670000002003,None,3,58,250,20,230.35043030000003,,,,,,,,,230.34246639999998,230.35043030000003,230.50000310000001,230.70160170000003,right,0,0.18613670000002003,None,906513,001,2025-02-06_20h03.15.209,stroop,2024.2.4,59.86486106263266,2025-02-06 20h03.21.763671 -0800,
test,consistent,7,yellow,yellow,word,left,800,2000,251,59,3,left,1,0.09735580000005939,None,3,59,251,34,230.71613359999998,,,,,,,,,230.70759049999998,230.71613359999998,230.8660805,230.96933589999998,left,1,0.09735580000005939,None,906513,001,2025-02-06_20h03.15.209,stroop,2024.2.4,59.86486106263266,2025-02-06 20h03.21.763671 -0800,
test,consistent,16,yellow,yellow,word,left,800,2000,252,60,3,right,0,0.15549959999998464,None,3,60,252,43,230.98321330000005,,,,,,,,,230.97175810000005,230.98321330000005,231.13318209999994,231.29995479999997,right,0,0.15549959999998464,None,906513,001,2025-02-06_20h03.15.209,stroop,2024.2.4,59.86486106263266,2025-02-06 20h03.21.763671 -0800,
test,consistent,34,yellow,yellow,word,left,800,2000,253,61,3,right,0,0.32856279999998605,None,3,61,253,61,231.31575719999995,,,,,,,,,231.30068160000002,231.31575719999995,231.4491704,231.7848578,right,0,0.32856279999998605,None,906513,001,2025-02-06_20h03.15.209,stroop,2024.2.4,59.86486106263266,2025-02-06 20h03.21.763671 -0800,
test,inconsistent,13,blue,green,word,right,800,2000,254,62,3,left,0,0.14154729999995652,None,3,62,254,12,231.79952769999994,,,,,,,,,231.7913365,231.79952769999994,231.94937220000003,232.10033749999997,left,0,0.14154729999995652,None,906513,001,2025-02-06_20h03.15.209,stroop,2024.2.4,59.86486106263266,2025-02-06 20h03.21.763671 -0800,
test,inconsistent,23,green,yellow,word,right,800,2000,255,63,3,right,1,0.2346360999999888,None,3,63,255,50,232.11584669999996,,,,,,,,,232.10703059999997,232.11584669999996,232.2661476,232.51978019999996,right,1,0.2346360999999888,None,906513,001,2025-02-06_20h03.15.209,stroop,2024.2.4,59.86486106263266,2025-02-06 20h03.21.763671 -0800,
test,inconsistent,2,blue,red,word,right,800,2000,256,0,4,left,0,0.20204419999993206,None,4,0,256,1,232.53893769999996,,,,,,,,,232.5292758,232.53893769999996,232.68207939999996,232.89985429999996,left,0,0.20204419999993206,None,906513,001,2025-02-06_20h03.15.209,stroop,2024.2.4,59.86486106263266,2025-02-06 20h03.21.763671 -0800,
test,inconsistent,10,orange,black,word,right,800,2000,257,1,4,right,1,0.268520800000033,None,4,1,257,9,232.91526559999994,,,,,,,,,232.9028781,232.91526559999994,233.06541220000003,233.34993809999997,right,1,0.268520800000033,None,906513,001,2025-02-06_20h03.15.209,stroop,2024.2.4,59.86486106263266,2025-02-06 20h03.21.763671 -0800,
test,consistent,22,yellow,yellow,word,left,800,2000,258,2,4,left,1,0.21572900000001027,None,4,2,258,21,233.36516450000005,,,,,,,,,233.35354950000004,233.36516450000005,233.51564190000005,233.73407719999994,left,1,0.21572900000001027,None,906513,001,2025-02-06_20h03.15.209,stroop,2024.2.4,59.86486106263266,2025-02-06 20h03.21.763671 -0800,
test,inconsistent,15,purple,black,word,right,800,2000,259,3,4,right,1,0.17303849999996146,None,4,3,259,14,233.7481611,,,,,,,,,233.74111769999996,233.7481611,233.89844910000005,234.0831162,right,1,0.17303849999996146,None,906513,001,2025-02-06_20h03.15.209,stroop,2024.2.4,59.86486106263266,2025-02-06 20h03.21.763671 -0800,
test,inconsistent,2,red,green,word,right,800,2000,260,4,4,left,0,0.21766230000002906,None,4,4,260,29,234.09818330000002,,,,,,,,,234.08658329999997,234.09818330000002,234.24833919999998,234.4719865,left,0,0.21766230000002906,None,906513,001,2025-02-06_20h03.15.209,stroop,2024.2.4,59.86486106263266,2025-02-06 20h03.21.763671 -0800,
test,inconsistent,21,red,yellow,word,right,800,2000,261,5,4,right,1,0.23447329999999056,None,4,5,261,48,234.48386150000005,,,,,,,,,234.47518959999996,234.48386150000005,234.6317896,234.883175,right,1,0.23447329999999056,None,906513,001,2025-02-06_20h03.15.209,stroop,2024.2.4,59.86486106263266,2025-02-06 20h03.21.763671 -0800,
test,inconsistent,8,yellow,red,word,right,800,2000,262,6,4,right,1,0.4716426999999612,None,4,6,262,35,234.898432,,,,,,,,,234.88840220000003,234.898432,235.0482616,235.53233719999997,right,1,0.4716426999999612,None,906513,001,2025-02-06_20h03.15.209,stroop,2024.2.4,59.86486106263266,2025-02-06 20h03.21.763671 -0800,
test,consistent,31,green,green,word,left,800,2000,263,7,4,right,0,0.3184416000000283,None,4,7,263,58,235.54803859999998,,,,,,,,,235.5352946,235.54803859999998,235.6982579,236.03216600000002,right,0,0.3184416000000283,None,906513,001,2025-02-06_20h03.15.209,stroop,2024.2.4,59.86486106263266,2025-02-06 20h03.21.763671 -0800,
test,inconsistent,18,yellow,green,word,right,800,2000,264,8,4,right,1,0.23868509999999787,None,4,8,264,45,236.04755429999994,,,,,,,,,236.034871,236.04755429999994,236.19782370000001,236.4485911,right,1,0.23868509999999787,None,906513,001,2025-02-06_20h03.15.209,stroop,2024.2.4,59.86486106263266,2025-02-06 20h03.21.763671 -0800,
test,consistent,13,green,green,word,left,800,2000,265,9,4,right,0,0.41551240000001144,None,4,9,265,40,236.46429959999995,,,,,,,,,236.45219179999998,236.46429959999995,236.61452300000002,237.03344839999994,right,0,0.41551240000001144,None,906513,001,2025-02-06_20h03.15.209,stroop,2024.2.4,59.86486106263266,2025-02-06 20h03.21.763671 -0800,
test,inconsistent,13,blue,green,word,right,800,2000,266,10,4,right,1,0.6922366000000011,None,4,10,266,12,237.047257,,,,,,,,,237.0388946,237.047257,237.19765720000004,237.89776520000004,right,1,0.6922366000000011,None,906513,001,2025-02-06_20h03.15.209,stroop,2024.2.4,59.86486106263266,2025-02-06 20h03.21.763671 -0800,
test,inconsistent,36,yellow,green,word,right,800,2000,267,11,4,right,1,0.30662680000000364,None,4,11,267,63,237.9136355,,,,,,,,,237.90049949999997,237.9136355,238.06348299999996,238.38115620000002,right,1,0.30662680000000364,None,906513,001,2025-02-06_20h03.15.209,stroop,2024.2.4,59.86486106263266,2025-02-06 20h03.21.763671 -0800,
test,consistent,4,green,green,word,left,800,2000,268,12,4,right,0,0.21744189999992614,None,4,12,268,31,238.39667690000005,,,,,,,,,238.38419930000003,238.39667690000005,238.54723800000005,238.7823603,right,0,0.21744189999992614,None,906513,001,2025-02-06_20h03.15.209,stroop,2024.2.4,59.86486106263266,2025-02-06 20h03.21.763671 -0800,
test,consistent,25,red,red,word,left,800,2000,269,13,4,right,0,0.1838266999999405,None,4,13,269,24,238.79700010000005,,,,,,,,,238.78702370000002,238.79700010000005,238.94702190000004,239.13446559999994,right,0,0.1838266999999405,None,906513,001,2025-02-06_20h03.15.209,stroop,2024.2.4,59.86486106263266,2025-02-06 20h03.21.763671 -0800,
test,consistent,27,yellow,yellow,word,left,800,2000,270,14,4,right,0,0.17027669999993122,None,4,14,270,26,239.1491322,,,,,,,,,239.1442636,239.1491322,239.2966181,239.4830728,right,0,0.17027669999993122,None,906513,001,2025-02-06_20h03.15.209,stroop,2024.2.4,59.86486106263266,2025-02-06 20h03.21.763671 -0800,
test,inconsistent,23,green,yellow,word,right,800,2000,271,15,4,right,1,0.1807777999999871,None,4,15,271,50,239.49712759999994,,,,,,,,,239.4920877,239.49712759999994,239.64689249999998,239.8305082,right,1,0.1807777999999871,None,906513,001,2025-02-06_20h03.15.209,stroop,2024.2.4,59.86486106263266,2025-02-06 20h03.21.763671 -0800,
test,inconsistent,32,green,yellow,word,right,800,2000,272,16,4,right,1,0.3316368999999213,None,4,16,272,59,239.84631129999997,,,,,,,,,239.8312232,239.84631129999997,239.99663419999996,240.33060459999996,right,1,0.3316368999999213,None,906513,001,2025-02-06_20h03.15.209,stroop,2024.2.4,59.86486106263266,2025-02-06 20h03.21.763671 -0800,
test,consistent,19,red,red,word,left,800,2000,273,17,4,right,0,0.2284033000000818,None,4,17,273,46,240.34604800000005,,,,,,,,,240.33339889999996,240.34604800000005,240.4965189,240.73146260000004,right,0,0.2284033000000818,None,906513,001,2025-02-06_20h03.15.209,stroop,2024.2.4,59.86486106263266,2025-02-06 20h03.21.763671 -0800,
test,inconsistent,12,black,yellow,word,right,800,2000,274,18,4,right,1,0.2130975000000035,None,4,18,274,11,240.74629180000005,,,,,,,,,240.73589529999998,240.74629180000005,240.8965381,241.1137488,right,1,0.2130975000000035,None,906513,001,2025-02-06_20h03.15.209,stroop,2024.2.4,59.86486106263266,2025-02-06 20h03.21.763671 -0800,
test,inconsistent,14,green,yellow,word,right,800,2000,275,19,4,right,1,0.2922749000000522,None,4,19,275,41,241.12914940000002,,,,,,,,,241.11672570000002,241.12914940000002,241.27974090000004,241.58240080000002,right,1,0.2922749000000522,None,906513,001,2025-02-06_20h03.15.209,stroop,2024.2.4,59.86486106263266,2025-02-06 20h03.21.763671 -0800,
test,consistent,26,blue,blue,word,left,800,2000,276,20,4,right,0,0.2964690999999675,None,4,20,276,25,241.59817649999997,,,,,,,,,241.59082540000003,241.59817649999997,241.74548020000003,242.04775839999996,right,0,0.2964690999999675,None,906513,001,2025-02-06_20h03.15.209,stroop,2024.2.4,59.86486106263266,2025-02-06 20h03.21.763671 -0800,
test,inconsistent,12,red,yellow,word,right,800,2000,277,21,4,right,1,0.17024470000001202,None,4,21,277,39,242.06242579999997,,,,,,,,,242.05375740000005,242.06242579999997,242.21266480000003,242.39650239999997,right,1,0.17024470000001202,None,906513,001,2025-02-06_20h03.15.209,stroop,2024.2.4,59.86486106263266,2025-02-06 20h03.21.763671 -0800,
test,inconsistent,24,green,red,word,right,800,2000,278,22,4,right,1,0.21297760000004473,None,4,22,278,51,242.4120082,,,,,,,,,242.39910909999998,242.4120082,242.5627109,242.7805229,right,1,0.21297760000004473,None,906513,001,2025-02-06_20h03.15.209,stroop,2024.2.4,59.86486106263266,2025-02-06 20h03.21.763671 -0800,
test,inconsistent,26,yellow,red,word,right,800,2000,279,23,4,right,1,0.1849998999999798,None,4,23,279,53,242.79517589999995,,,,,,,,,242.78520139999995,242.79517589999995,242.94539560000004,243.14924739999998,right,1,0.1849998999999798,None,906513,001,2025-02-06_20h03.15.209,stroop,2024.2.4,59.86486106263266,2025-02-06 20h03.21.763671 -0800,
test,inconsistent,3,orange,blue,word,right,800,2000,280,24,4,right,1,0.19774440000003324,None,4,24,280,2,243.16746270000004,,,,,,,,,243.15797430000003,243.16746270000004,243.31242500000002,243.51337610000002,right,1,0.19774440000003324,None,906513,001,2025-02-06_20h03.15.209,stroop,2024.2.4,59.86486106263266,2025-02-06 20h03.21.763671 -0800,
test,inconsistent,27,yellow,green,word,right,800,2000,281,25,4,right,1,0.15691789999993944,None,4,25,281,54,243.52847060000005,,,,,,,,,243.516186,243.52847060000005,243.67850419999996,243.8482978,right,1,0.15691789999993944,None,906513,001,2025-02-06_20h03.15.209,stroop,2024.2.4,59.86486106263266,2025-02-06 20h03.21.763671 -0800,
test,inconsistent,4,black,yellow,word,right,800,2000,282,26,4,right,1,0.151600300000041,None,4,26,282,3,243.86802129999995,,,,,,,,,243.8581463,243.86802129999995,244.01174729999997,244.18005969999996,right,1,0.151600300000041,None,906513,001,2025-02-06_20h03.15.209,stroop,2024.2.4,59.86486106263266,2025-02-06 20h03.21.763671 -0800,
test,consistent,1,red,red,word,left,800,2000,283,27,4,right,0,0.1617438000000675,None,4,27,283,28,244.19517060000004,,,,,,,,,244.18578989999997,244.19517060000004,244.34486550000003,244.51483279999997,right,0,0.1617438000000675,None,906513,001,2025-02-06_20h03.15.209,stroop,2024.2.4,59.86486106263266,2025-02-06 20h03.21.763671 -0800,
test,consistent,10,red,red,word,left,800,2000,284,28,4,right,0,0.14964310000004843,None,4,28,284,37,244.52843160000003,,,,,,,,,244.51723169999997,244.52843160000003,244.67845189999997,244.82994479999996,right,0,0.14964310000004843,None,906513,001,2025-02-06_20h03.15.209,stroop,2024.2.4,59.86486106263266,2025-02-06 20h03.21.763671 -0800,
test,consistent,7,yellow,yellow,word,left,800,2000,285,29,4,right,0,0.1961945000000469,None,4,29,285,34,244.84477959999998,,,,,,,,,244.8355429,244.84477959999998,244.99478440000001,245.19886279999997,right,0,0.1961945000000469,None,906513,001,2025-02-06_20h03.15.209,stroop,2024.2.4,59.86486106263266,2025-02-06 20h03.21.763671 -0800,
test,consistent,21,blue,blue,word,left,800,2000,286,30,4,right,0,0.23584310000001096,None,4,30,286,20,245.2129862,,,,,,,,,245.20641849999998,245.2129862,245.36157399999996,245.61167129999995,right,0,0.23584310000001096,None,906513,001,2025-02-06_20h03.15.209,stroop,2024.2.4,59.86486106263266,2025-02-06 20h03.21.763671 -0800,
test,inconsistent,14,red,blue,word,right,800,2000,287,31,4,right,1,0.254435199999989,None,4,31,287,13,245.62750939999995,,,,,,,,,245.6142881,245.62750939999995,245.7609584,246.02979280000005,right,1,0.254435199999989,None,906513,001,2025-02-06_20h03.15.209,stroop,2024.2.4,59.86486106263266,2025-02-06 20h03.21.763671 -0800,
test,consistent,34,yellow,yellow,word,left,800,2000,288,32,4,right,0,0.4191386999999622,None,4,32,288,61,246.04418270000002,,,,,,,,,246.03538769999994,246.04418270000002,246.19435900000002,246.6301606,right,0,0.4191386999999622,None,906513,001,2025-02-06_20h03.15.209,stroop,2024.2.4,59.86486106263266,2025-02-06 20h03.21.763671 -0800,
test,inconsistent,16,green,blue,word,right,800,2000,289,33,4,right,1,0.48472159999994346,None,4,33,289,15,246.64424330000003,,,,,,,,,246.63592550000004,246.64424330000003,246.79413040000003,247.2957674,right,1,0.48472159999994346,None,906513,001,2025-02-06_20h03.15.209,stroop,2024.2.4,59.86486106263266,2025-02-06 20h03.21.763671 -0800,
test,consistent,20,red,red,word,left,800,2000,290,34,4,right,0,0.20140669999989314,None,4,34,290,19,247.31061849999998,,,,,,,,,247.30178859999995,247.31061849999998,247.46046670000004,247.67788549999995,right,0,0.20140669999989314,None,906513,001,2025-02-06_20h03.15.209,stroop,2024.2.4,59.86486106263266,2025-02-06 20h03.21.763671 -0800,
test,inconsistent,3,red,yellow,word,right,800,2000,291,35,4,right,1,0.18264850000002752,None,4,35,291,30,247.6938707,,,,,,,,,247.67858970000003,247.6938707,247.84415670000004,248.02804880000002,right,1,0.18264850000002752,None,906513,001,2025-02-06_20h03.15.209,stroop,2024.2.4,59.86486106263266,2025-02-06 20h03.21.763671 -0800,
test,inconsistent,9,yellow,green,word,right,800,2000,292,36,4,right,1,0.21958359999996446,None,4,36,292,36,248.04342820000005,,,,,,,,,248.03115080000003,248.04342820000005,248.19346260000003,248.42794550000002,right,1,0.21958359999996446,None,906513,001,2025-02-06_20h03.15.209,stroop,2024.2.4,59.86486106263266,2025-02-06 20h03.21.763671 -0800,
test,consistent,23,black,black,word,left,800,2000,293,37,4,None,0,,,4,37,293,22,248.44335689999997,,,,,,,,,248.4334131,248.44335689999997,248.59360840000005,253.42559420000003,None,0,,,906513,001,2025-02-06_20h03.15.209,stroop,2024.2.4,59.86486106263266,2025-02-06 20h03.21.763671 -0800,
test,inconsistent,15,green,red,word,right,800,2000,294,38,4,None,0,,,4,38,294,42,253.44154110000005,,,,,,,,,253.4281765,253.44154110000005,253.5750622,258.425683,None,0,,,906513,001,2025-02-06_20h03.15.209,stroop,2024.2.4,59.86486106263266,2025-02-06 20h03.21.763671 -0800,
test,inconsistent,29,red,green,word,right,800,2000,295,39,4,None,0,,,4,39,295,56,258.44020500000005,,,,,,,,,258.433236,258.44020500000005,258.5904056,263.42402599999997,None,0,,,906513,001,2025-02-06_20h03.15.209,stroop,2024.2.4,59.86486106263266,2025-02-06 20h03.21.763671 -0800,
test,consistent,28,red,red,word,left,800,2000,296,40,4,right,0,0.2555882000000338,None,4,40,296,55,263.43819090000005,,,,,,,,,263.42590249999995,263.43819090000005,263.58825029999997,263.8555667,right,0,0.2555882000000338,None,906513,001,2025-02-06_20h03.15.209,stroop,2024.2.4,59.86486106263266,2025-02-06 20h03.21.763671 -0800,
test,inconsistent,11,red,green,word,right,800,2000,297,41,4,left,0,0.2652329999999665,None,4,41,297,38,263.8715074,,,,,,,,,263.8562632,263.8715074,264.02187009999994,264.28936100000004,left,0,0.2652329999999665,None,906513,001,2025-02-06_20h03.15.209,stroop,2024.2.4,59.86486106263266,2025-02-06 20h03.21.763671 -0800,
test,inconsistent,6,green,red,word,right,800,2000,298,42,4,right,1,0.1261375000000271,None,4,42,298,33,264.30488340000005,,,,,,,,,264.29187140000005,264.30488340000005,264.45510210000003,264.58939979999997,right,1,0.1261375000000271,None,906513,001,2025-02-06_20h03.15.209,stroop,2024.2.4,59.86486106263266,2025-02-06 20h03.21.763671 -0800,
