type,condition1,trialNo,stim1,textColor,stimFormat,key,ITI,presTime,thisN,thisTrialN,thisRepN,press.keys,press.corr,press.rt,press.duration,stroop.thisRepN,stroop.thisTrialN,stroop.thisN,stroop.thisIndex,thisRow.t,notes,welcome.started,press_space.started,text_welcome.started,welcome.stopped,press_space.keys,press_space.rt,press_space.duration,fixation_control.started,dot_control.started,dot_control.stopped,fixation_control.stopped,trial.started,press.started,text_stroop.started,dot.started,text_stroop.stopped,trial.stopped,stroop.press.keys,stroop.press.corr,stroop.press.rt,stroop.press.duration,time_fixation,fixation.started,dot_fixation.started,dot_fixation.stopped,fixation.stopped,thanks.started,thank_you.started,thanks.stopped,participant,session,date,expName,psychopyVersion,frameRate,expStart,
,,,,,,,,,,,,,,,,,,,,,,0.002328700000362005,0.005771799998910865,0.005771799998910865,25.341298300001654,space,25.320624600000883,None,,,,,,,,,,,,,,,,,,,,,,,kc,001,2025-03-08_17h15.54.625,pleaseworkstroopcontrol,2024.2.4,60.04480543334218,2025-03-08 17h16.09.575847 -0800,
,,,,,,,,,,,,,,,,,,,,,,,,,,,,,25.341956399999617,25.348811200001364,85.44097010000041,85.33901400000104,,,,,,,,,,,,,,,,,,,kc,001,2025-03-08_17h15.54.625,pleaseworkstroopcontrol,2024.2.4,60.04480543334218,2025-03-08 17h16.09.575847 -0800,
test,consistent,35,red,red,word,m,800,2000,0,0,0,m,1,1.4702734999991662,None,0,0,0,34,85.44097010000041,,,,,,,,,,,,,85.43765310000163,85.44097010000041,85.44097010000041,85.5546706999994,85.5546706999994,86.92398989999856,m,1,1.4702734999991662,None,2.8707623034678416,86.9335925000014,86.94043070000043,89.81216309999945,89.78982650000034,,,,kc,001,2025-03-08_17h15.54.625,pleaseworkstroopcontrol,2024.2.4,60.04480543334218,2025-03-08 17h16.09.575847 -0800,
test,consistent,40,yellow,yellow,word,m,800,2000,1,1,0,z,0,0.48672889999943436,None,0,1,1,39,89.81216309999945,,,,,,,,,,,,,89.80600350000168,89.81216309999945,89.81216309999945,90.00516870000138,90.00516870000138,90.30732329999955,z,0,0.48672889999943436,None,4.1149954640945365,90.30823020000025,90.32206840000072,94.42247599999973,94.40627529999983,,,,kc,001,2025-03-08_17h15.54.625,pleaseworkstroopcontrol,2024.2.4,60.04480543334218,2025-03-08 17h16.09.575847 -0800,
test,consistent,12,yellow,yellow,word,m,800,2000,2,2,0,m,1,0.4827189999996335,None,0,2,2,11,94.42247599999973,,,,,,,,,,,,,94.40707739999925,94.42247599999973,94.42247599999973,94.60544139999911,94.60544139999911,94.90836349999881,m,1,0.4827189999996335,None,1.340860030908336,94.90914540000085,94.9223364999998,96.26013729999977,96.24057410000023,,,,kc,001,2025-03-08_17h15.54.625,pleaseworkstroopcontrol,2024.2.4,60.04480543334218,2025-03-08 17h16.09.575847 -0800,
test,inconsistent,29,green,blue,word,z,800,2000,3,3,0,z,1,0.7485095000010915,None,0,3,3,28,96.26013729999977,,,,,,,,,,,,,96.25375669999994,96.26013729999977,96.26013729999977,96.45570009999938,96.45570009999938,97.02431530000104,z,1,0.7485095000010915,None,2.0810099986158974,97.02500839999993,97.03932269999859,99.10853069999939,99.09044310000172,,,,kc,001,2025-03-08_17h15.54.625,pleaseworkstroopcontrol,2024.2.4,60.04480543334218,2025-03-08 17h16.09.575847 -0800,
test,inconsistent,3,blue,red,word,z,800,2000,4,4,0,z,1,0.8161060999991605,None,0,4,4,2,99.10853069999939,,,,,,,,,,,,,99.10226440000042,99.10853069999939,99.10853069999939,99.30596969999897,99.30596969999897,99.94170690000101,z,1,0.8161060999991605,None,3.9977062950908895,99.94240550000177,99.95618209999884,103.94017760000133,103.92426650000198,,,,kc,001,2025-03-08_17h15.54.625,pleaseworkstroopcontrol,2024.2.4,60.04480543334218,2025-03-08 17h16.09.575847 -0800,
test,consistent,46,yellow,yellow,word,m,800,2000,5,5,0,m,1,0.7597542000003159,None,0,5,5,45,103.94017760000133,,,,,,,,,,,,,103.93101020000177,103.94017760000133,103.94017760000133,104.14005130000078,104.14005130000078,104.70871360000092,m,1,0.7597542000003159,None,5.797960824356459,104.70944009999948,104.7234998999993,110.50675509999928,110.49092240000027,,,,kc,001,2025-03-08_17h15.54.625,pleaseworkstroopcontrol,2024.2.4,60.04480543334218,2025-03-08 17h16.09.575847 -0800,
test,consistent,23,green,green,word,m,800,2000,6,6,0,m,1,0.6718383999977959,None,0,6,6,22,110.50675509999928,,,,,,,,,,,,,110.49630940000134,110.50675509999928,110.50675509999928,110.6907710000014,110.6907710000014,111.19303840000066,m,1,0.6718383999977959,None,3.0354236352714485,111.19387490000008,111.20725930000117,114.24098230000163,114.22542339999927,,,,kc,001,2025-03-08_17h15.54.625,pleaseworkstroopcontrol,2024.2.4,60.04480543334218,2025-03-08 17h16.09.575847 -0800,
test,inconsistent,17,yellow,green,word,z,800,2000,7,7,0,z,1,0.7289171000011265,None,0,7,7,16,114.24098230000163,,,,,,,,,,,,,114.23305199999959,114.24098230000163,114.24098230000163,114.44107829999848,114.44107829999848,114.976692799999,z,1,0.7289171000011265,None,5.825274445967914,114.97735939999984,114.99104100000113,120.80819469999915,120.7927482999985,,,,kc,001,2025-03-08_17h15.54.625,pleaseworkstroopcontrol,2024.2.4,60.04480543334218,2025-03-08 17h16.09.575847 -0800,
test,inconsistent,52,red,green,word,z,800,2000,8,8,0,z,1,0.6949392999995325,None,0,8,8,51,120.80819469999915,,,,,,,,,,,,,120.79721309999877,120.80819469999915,120.80819469999915,121.00810139999885,121.00810139999885,121.51041339999938,z,1,0.6949392999995325,None,3.1901479140937368,121.51114560000133,121.52503760000036,124.70858439999938,124.6933577000018,,,,kc,001,2025-03-08_17h15.54.625,pleaseworkstroopcontrol,2024.2.4,60.04480543334218,2025-03-08 17h16.09.575847 -0800,
test,inconsistent,39,red,yellow,word,z,800,2000,9,9,0,z,1,0.7517559000007168,None,0,9,9,38,124.70858439999938,,,,,,,,,,,,,124.69513440000082,124.70858439999938,124.70858439999938,124.90864940000029,124.90864940000029,125.47748960000172,z,1,0.7517559000007168,None,2.7722699993949482,125.47818280000138,125.49225569999908,128.25903499999913,128.24351350000143,,,,kc,001,2025-03-08_17h15.54.625,pleaseworkstroopcontrol,2024.2.4,60.04480543334218,2025-03-08 17h16.09.575847 -0800,
test,inconsistent,26,green,yellow,word,z,800,2000,10,10,0,z,1,0.7241165999985242,None,0,10,10,25,128.25903499999913,,,,,,,,,,,,,128.24905840000065,128.25903499999913,128.25903499999913,128.45889729999908,128.45889729999908,128.99463599999945,z,1,0.7241165999985242,None,1.0488637418969966,128.99540179999894,129.00926189999882,130.06081279999853,130.04381550000107,,,,kc,001,2025-03-08_17h15.54.625,pleaseworkstroopcontrol,2024.2.4,60.04480543334218,2025-03-08 17h16.09.575847 -0800,
test,inconsistent,13,purple,red,word,z,800,2000,11,11,0,z,1,0.7125804999996035,None,0,11,11,12,130.06081279999853,,,,,,,,,,,,,130.0549123000019,130.06081279999853,130.06081279999853,130.25917449999906,130.25917449999906,130.77823669999998,z,1,0.7125804999996035,None,3.7145531332212007,130.77911479999966,130.7926675000017,134.49333800000022,134.47758109999995,,,,kc,001,2025-03-08_17h15.54.625,pleaseworkstroopcontrol,2024.2.4,60.04480543334218,2025-03-08 17h16.09.575847 -0800,
test,inconsistent,42,green,yellow,word,z,800,2000,12,12,0,z,1,0.6544849000019894,None,0,12,12,41,134.49333800000022,,,,,,,,,,,,,134.48410090000107,134.49333800000022,134.49333800000022,134.69313089999923,134.69313089999923,135.16185899999982,z,1,0.6544849000019894,None,5.471889353328435,135.16269699999975,135.176625600001,140.64375690000088,140.6286067000001,,,,kc,001,2025-03-08_17h15.54.625,pleaseworkstroopcontrol,2024.2.4,60.04480543334218,2025-03-08 17h16.09.575847 -0800,
test,inconsistent,58,yellow,red,word,z,800,2000,13,13,0,z,1,0.7062521000007109,None,0,13,13,57,140.64375690000088,,,,,,,,,,,,,140.63462209999852,140.64375690000088,140.64375690000088,140.84374670000034,140.84374670000034,141.3623961000012,z,1,0.7062521000007109,None,1.1055172412308525,141.36309679999977,141.3770599999989,142.48003830000016,142.46148529999846,,,,kc,001,2025-03-08_17h15.54.625,pleaseworkstroopcontrol,2024.2.4,60.04480543334218,2025-03-08 17h16.09.575847 -0800,
test,inconsistent,5,orange,blue,word,z,800,2000,14,14,0,z,1,0.6976883000024827,None,0,14,14,4,142.48003830000016,,,,,,,,,,,,,142.4731724000012,142.48003830000016,142.48003830000016,142.67722460000005,142.67722460000005,143.17989659999876,z,1,0.6976883000024827,None,3.452291102493555,143.18055490000188,143.19395689999874,146.64400549999846,146.6287732000019,,,,kc,001,2025-03-08_17h15.54.625,pleaseworkstroopcontrol,2024.2.4,60.04480543334218,2025-03-08 17h16.09.575847 -0800,
test,inconsistent,11,green,red,word,z,800,2000,15,15,0,z,1,1.190139199999976,None,0,15,15,10,146.64400549999846,,,,,,,,,,,,,146.63519209999868,146.64400549999846,146.64400549999846,146.84414390000165,146.84414390000165,147.84641750000083,z,1,1.190139199999976,None,5.875087814836924,147.84709529999964,147.86071920000177,153.72827410000173,153.71247399999993,,,,kc,001,2025-03-08_17h15.54.625,pleaseworkstroopcontrol,2024.2.4,60.04480543334218,2025-03-08 17h16.09.575847 -0800,
test,consistent,18,red,red,word,m,800,2000,16,16,0,m,1,0.8806667999997444,None,0,16,16,17,153.72827410000173,,,,,,,,,,,,,153.71709099999862,153.72827410000173,153.72827410000173,153.92830740000136,153.92830740000136,154.61317849999978,m,1,0.8806667999997444,None,4.016513252314738,154.6139332999992,154.62812000000122,158.64539220000006,158.62950160000037,,,,kc,001,2025-03-08_17h15.54.625,pleaseworkstroopcontrol,2024.2.4,60.04480543334218,2025-03-08 17h16.09.575847 -0800,
test,consistent,7,green,green,word,m,800,2000,17,17,0,m,1,0.8452269000008528,None,0,17,17,6,158.64539220000006,,,,,,,,,,,,,158.63646190000145,158.64539220000006,158.64539220000006,158.84530090000044,158.84530090000044,159.49793679999857,m,1,0.8452269000008528,None,4.889438302065961,159.49868380000044,159.51196139999956,164.39613349999854,164.3807471,,,,kc,001,2025-03-08_17h15.54.625,pleaseworkstroopcontrol,2024.2.4,60.04480543334218,2025-03-08 17h16.09.575847 -0800,
test,consistent,43,green,green,word,m,800,2000,18,18,0,m,1,0.6066618999975617,None,0,18,18,42,164.39613349999854,,,,,,,,,,,,,164.3823330999985,164.39613349999854,164.39613349999854,164.59615779999876,164.59615779999876,165.0145967999997,m,1,0.6066618999975617,None,5.868453092260564,165.01555860000008,165.029558000002,170.8966690999987,170.88113460000022,,,,kc,001,2025-03-08_17h15.54.625,pleaseworkstroopcontrol,2024.2.4,60.04480543334218,2025-03-08 17h16.09.575847 -0800,
test,inconsistent,48,yellow,red,word,z,800,2000,19,19,0,z,1,0.7684951000010187,None,0,19,19,47,170.8966690999987,,,,,,,,,,,,,170.88807319999978,170.8966690999987,170.8966690999987,171.09670879999976,171.09670879999976,171.6823289999993,z,1,0.7684951000010187,None,5.8143051587035535,171.6830880000016,171.69682430000103,177.4971446999989,177.48171179999918,,,,kc,001,2025-03-08_17h15.54.625,pleaseworkstroopcontrol,2024.2.4,60.04480543334218,2025-03-08 17h16.09.575847 -0800,
test,consistent,47,blue,blue,word,m,800,2000,20,20,0,m,1,0.8236505000022589,None,0,20,20,46,177.4971446999989,,,,,,,,,,,,,177.4873848999996,177.4971446999989,177.4971446999989,177.69754490000196,177.69754490000196,178.3327270000009,m,1,0.8236505000022589,None,3.653232101311038,178.3334090999997,178.347245500001,181.99745750000147,181.98170759999994,,,,kc,001,2025-03-08_17h15.54.625,pleaseworkstroopcontrol,2024.2.4,60.04480543334218,2025-03-08 17h16.09.575847 -0800,
test,inconsistent,15,yellow,red,word,z,800,2000,21,21,0,z,1,0.7908413000004657,None,0,21,21,14,181.99745750000147,,,,,,,,,,,,,181.98601580000104,181.99745750000147,181.99745750000147,182.19747690000077,182.19747690000077,182.7998007999995,z,1,0.7908413000004657,None,3.5192309554542502,182.80068409999876,182.8142353000003,186.33161370000016,186.31590399999914,,,,kc,001,2025-03-08_17h15.54.625,pleaseworkstroopcontrol,2024.2.4,60.04480543334218,2025-03-08 17h16.09.575847 -0800,
test,consistent,45,red,red,word,m,800,2000,22,22,0,m,1,0.5739255000007688,None,0,22,22,44,186.33161370000016,,,,,,,,,,,,,186.32088310000108,186.33161370000016,186.33161370000016,186.5315965000009,186.5315965000009,186.91668330000175,m,1,0.5739255000007688,None,5.321112479549524,186.91736339999989,186.93167679999897,192.24858239999958,192.23330459999852,,,,kc,001,2025-03-08_17h15.54.625,pleaseworkstroopcontrol,2024.2.4,60.04480543334218,2025-03-08 17h16.09.575847 -0800,
test,inconsistent,56,green,red,word,z,800,2000,23,23,0,z,1,0.4621064999992086,None,0,23,23,55,192.24858239999958,,,,,,,,,,,,,192.241380200001,192.24858239999958,192.24858239999958,192.44874060000075,192.44874060000075,192.71730129999924,z,1,0.4621064999992086,None,1.8001228194301042,192.71802430000025,192.73231339999984,194.53224939999927,194.51658010000028,,,,kc,001,2025-03-08_17h15.54.625,pleaseworkstroopcontrol,2024.2.4,60.04480543334218,2025-03-08 17h16.09.575847 -0800,
test,inconsistent,24,blue,green,word,z,800,2000,24,24,0,z,1,0.7501625999975658,None,0,24,24,23,194.53224939999927,,,,,,,,,,,,,194.52346490000127,194.53224939999927,194.53224939999927,194.73215210000126,194.73215210000126,195.28505850000147,z,1,0.7501625999975658,None,1.98661392946571,195.28581570000097,195.29906560000018,197.28250900000057,197.26674439999988,,,,kc,001,2025-03-08_17h15.54.625,pleaseworkstroopcontrol,2024.2.4,60.04480543334218,2025-03-08 17h16.09.575847 -0800,
test,inconsistent,55,green,yellow,word,z,800,2000,25,25,0,m,0,0.5379400000019814,None,0,25,25,54,197.28250900000057,,,,,,,,,,,,,197.27390000000014,197.28250900000057,197.28250900000057,197.48265529999844,197.48265529999844,197.83483440000055,m,0,0.5379400000019814,None,4.352517330674509,197.8357004999998,197.84950240000035,202.1997431000018,202.1841005999995,,,,kc,001,2025-03-08_17h15.54.625,pleaseworkstroopcontrol,2024.2.4,60.04480543334218,2025-03-08 17h16.09.575847 -0800,
test,consistent,1,red,red,word,m,800,2000,26,26,0,m,1,0.6354342000013276,None,0,26,26,0,202.1997431000018,,,,,,,,,,,,,202.18938300000082,202.1997431000018,202.1997431000018,202.39984869999898,202.39984869999898,202.85202760000175,m,1,0.6354342000013276,None,4.012975911000362,202.8526955999987,202.86605469999995,206.87406109999938,206.85130690000005,,,,kc,001,2025-03-08_17h15.54.625,pleaseworkstroopcontrol,2024.2.4,60.04480543334218,2025-03-08 17h16.09.575847 -0800,
test,inconsistent,21,black,yellow,word,z,800,2000,27,27,0,z,1,0.626106499999878,None,0,27,27,20,206.87406109999938,,,,,,,,,,,,,206.8678190999999,206.87406109999938,206.87406109999938,207.06657970000015,207.06657970000015,207.50276600000143,z,1,0.626106499999878,None,5.199999244701579,207.50354190000144,207.5167576999993,212.71697910000148,212.70237030000135,,,,kc,001,2025-03-08_17h15.54.625,pleaseworkstroopcontrol,2024.2.4,60.04480543334218,2025-03-08 17h16.09.575847 -0800,
test,consistent,28,yellow,yellow,word,m,800,2000,28,28,0,m,1,0.6374628000012308,None,0,28,28,27,212.71697910000148,,,,,,,,,,,,,212.70940749999863,212.71697910000148,212.71697910000148,212.9173277000009,212.9173277000009,213.36945259999993,m,1,0.6374628000012308,None,4.105099087107617,213.37019860000146,213.38431259999925,217.48468100000173,217.46887440000137,,,,kc,001,2025-03-08_17h15.54.625,pleaseworkstroopcontrol,2024.2.4,60.04480543334218,2025-03-08 17h16.09.575847 -0800,
test,inconsistent,14,yellow,blue,word,z,800,2000,29,29,0,z,1,0.6253757999984373,None,0,29,29,13,217.48468100000173,,,,,,,,,,,,,217.47106809999968,217.48468100000173,217.48468100000173,217.684592900001,217.684592900001,218.11993820000134,z,1,0.6253757999984373,None,3.270619847953576,218.1208144000011,218.13456700000097,221.40341780000017,221.38620309999897,,,,kc,001,2025-03-08_17h15.54.625,pleaseworkstroopcontrol,2024.2.4,60.04480543334218,2025-03-08 17h16.09.575847 -0800,
test,inconsistent,27,green,red,word,z,800,2000,30,30,0,z,1,0.7408136999983981,None,0,30,30,26,221.40341780000017,,,,,,,,,,,,,221.39537740000014,221.40341780000017,221.40341780000017,221.60153369999898,221.60153369999898,222.15396630000032,z,1,0.7408136999983981,None,3.677874284750738,222.15467809999973,222.16818440000134,225.8352554000012,225.8196414999984,,,,kc,001,2025-03-08_17h15.54.625,pleaseworkstroopcontrol,2024.2.4,60.04480543334218,2025-03-08 17h16.09.575847 -0800,
test,inconsistent,32,orange,green,word,z,800,2000,31,31,0,z,1,0.8185335999987728,None,0,31,31,31,225.8352554000012,,,,,,,,,,,,,225.82752640000035,225.8352554000012,225.8352554000012,226.03557790000195,226.03557790000195,226.6707630000019,z,1,0.8185335999987728,None,5.8938505542549295,226.6714632000003,226.68552930000078,232.56926960000055,232.55387930000143,,,,kc,001,2025-03-08_17h15.54.625,pleaseworkstroopcontrol,2024.2.4,60.04480543334218,2025-03-08 17h16.09.575847 -0800,
test,inconsistent,33,yellow,green,word,z,800,2000,32,32,0,z,1,0.5363219999999274,None,0,32,32,32,232.56926960000055,,,,,,,,,,,,,232.5601209000015,232.56926960000055,232.56926960000055,232.76915519999966,232.76915519999966,233.1213663999988,z,1,0.5363219999999274,None,2.231152287001169,233.12234869999884,233.1359874000009,235.3529176000011,235.33762650000062,,,,kc,001,2025-03-08_17h15.54.625,pleaseworkstroopcontrol,2024.2.4,60.04480543334218,2025-03-08 17h16.09.575847 -0800,
test,inconsistent,31,yellow,red,word,z,800,2000,33,33,0,z,1,0.7286496999986412,None,0,33,33,30,235.3529176000011,,,,,,,,,,,,,235.3390638000019,235.3529176000011,235.3529176000011,235.55308299999888,235.55308299999888,236.08867230000033,z,1,0.7286496999986412,None,5.199619838179515,236.08945250000033,236.10327880000114,241.30368459999954,241.28843469999993,,,,kc,001,2025-03-08_17h15.54.625,pleaseworkstroopcontrol,2024.2.4,60.04480543334218,2025-03-08 17h16.09.575847 -0800,
test,inconsistent,6,red,yellow,word,z,800,2000,34,34,0,z,1,0.566127600002801,None,0,34,34,5,241.30368459999954,,,,,,,,,,,,,241.29345939999985,241.30368459999954,241.30368459999954,241.50354000000152,241.50354000000152,241.87195090000023,z,1,0.566127600002801,None,5.3696924267264645,241.87270559999888,241.88670189999903,247.25393489999988,247.2383766999992,,,,kc,001,2025-03-08_17h15.54.625,pleaseworkstroopcontrol,2024.2.4,60.04480543334218,2025-03-08 17h16.09.575847 -0800,
test,inconsistent,22,red,yellow,word,z,800,2000,35,35,0,z,1,0.6192766000021948,None,0,35,35,21,247.25393489999988,,,,,,,,,,,,,247.24022030000197,247.25393489999988,247.25393489999988,247.4539248000001,247.4539248000001,247.88867050000044,z,1,0.6192766000021948,None,1.9395758373606444,247.88936850000027,247.90398659999846,249.83753699999943,249.8220990000009,,,,kc,001,2025-03-08_17h15.54.625,pleaseworkstroopcontrol,2024.2.4,60.04480543334218,2025-03-08 17h16.09.575847 -0800,
test,consistent,38,blue,blue,word,m,800,2000,36,36,0,z,0,0.584745500000281,None,0,36,36,37,249.83753699999943,,,,,,,,,,,,,249.82944979999957,249.83753699999943,249.83753699999943,250.03766240000186,250.03766240000186,250.44014360000074,z,0,0.584745500000281,None,5.429612122072172,250.44105910000144,250.45447739999872,255.87132180000117,255.85626480000064,,,,kc,001,2025-03-08_17h15.54.625,pleaseworkstroopcontrol,2024.2.4,60.04480543334218,2025-03-08 17h16.09.575847 -0800,
test,inconsistent,44,green,red,word,z,800,2000,37,37,0,z,1,0.6335119000032137,None,0,37,37,43,255.87132180000117,,,,,,,,,,,,,255.86219509999864,255.87132180000117,255.87132180000117,256.0713065000018,256.0713065000018,256.5080482000012,z,1,0.6335119000032137,None,3.1980858807224886,256.50881859999936,256.52165779999996,259.72178310000163,259.7065494000017,,,,kc,001,2025-03-08_17h15.54.625,pleaseworkstroopcontrol,2024.2.4,60.04480543334218,2025-03-08 17h16.09.575847 -0800,
test,consistent,36,red,red,word,m,800,2000,38,38,0,m,1,0.482986200000596,None,0,38,38,35,259.72178310000163,,,,,,,,,,,,,259.7112922000015,259.72178310000163,259.72178310000163,259.9217940000017,259.9217940000017,260.20778970000174,m,1,0.482986200000596,None,2.5711238456965058,260.20848939999996,260.2218654999997,262.78889809999964,262.7730097999993,,,,kc,001,2025-03-08_17h15.54.625,pleaseworkstroopcontrol,2024.2.4,60.04480543334218,2025-03-08 17h16.09.575847 -0800,
test,consistent,54,green,green,word,m,800,2000,39,39,0,z,0,0.5704484999987471,None,0,39,39,53,262.78889809999964,,,,,,,,,,,,,262.77861969999867,262.78889809999964,262.78889809999964,262.98900969999886,262.98900969999886,263.37410490000184,z,0,0.5704484999987471,None,2.3226911101136194,263.37502609999865,263.3891384999988,265.7057066000016,265.6900652000004,,,,kc,001,2025-03-08_17h15.54.625,pleaseworkstroopcontrol,2024.2.4,60.04480543334218,2025-03-08 17h16.09.575847 -0800,
test,inconsistent,50,yellow,green,word,z,800,2000,40,40,0,z,1,0.7922542999986035,None,0,40,40,49,265.7057066000016,,,,,,,,,,,,,265.6947375000018,265.7057066000016,265.7057066000016,265.9059191000015,265.9059191000015,266.50798959999884,z,1,0.7922542999986035,None,2.4245497846333413,266.5086807000007,266.5227537999999,268.9396951000017,268.92402049999873,,,,kc,001,2025-03-08_17h15.54.625,pleaseworkstroopcontrol,2024.2.4,60.04480543334218,2025-03-08 17h16.09.575847 -0800,
test,inconsistent,59,yellow,green,word,z,800,2000,41,41,0,z,1,0.6189331999994465,None,0,41,41,58,268.9396951000017,,,,,,,,,,,,,268.9254236000015,268.9396951000017,268.9396951000017,269.1397259000005,269.1397259000005,269.5746801999994,z,1,0.6189331999994465,None,4.487775200457985,269.57571449999887,269.5897452999998,274.07322980000026,274.05803279999964,,,,kc,001,2025-03-08_17h15.54.625,pleaseworkstroopcontrol,2024.2.4,60.04480543334218,2025-03-08 17h16.09.575847 -0800,
test,consistent,49,yellow,yellow,word,m,800,2000,42,42,0,m,1,0.5134347999992315,None,0,42,42,48,274.07322980000026,,,,,,,,,,,,,274.05932369999937,274.07322980000026,274.07322980000026,274.2731291000018,274.2731291000018,274.59242950000043,m,1,0.5134347999992315,None,2.849521927275207,274.59338710000156,274.6068124000012,277.4569894999986,277.44185350000043,,,,kc,001,2025-03-08_17h15.54.625,pleaseworkstroopcontrol,2024.2.4,60.04480543334218,2025-03-08 17h16.09.575847 -0800,
test,consistent,51,red,red,word,m,800,2000,43,43,0,m,1,0.6325452999990375,None,0,43,43,50,277.4569894999986,,,,,,,,,,,,,277.4471913000016,277.4569894999986,277.4569894999986,277.6574154000009,277.6574154000009,278.0926550000004,m,1,0.6325452999990375,None,4.4258909930872985,278.093409000001,278.1072201999996,282.5236055999994,282.50787950000085,,,,kc,001,2025-03-08_17h15.54.625,pleaseworkstroopcontrol,2024.2.4,60.04480543334218,2025-03-08 17h16.09.575847 -0800,
test,inconsistent,53,red,yellow,word,z,800,2000,44,44,0,z,1,0.7594142999987525,None,0,44,44,52,282.5236055999994,,,,,,,,,,,,,282.50910020000083,282.5236055999994,282.5236055999994,282.7237916000013,282.7237916000013,283.2929430000004,z,1,0.7594142999987525,None,4.148950244561175,283.29370650000055,283.30749650000143,287.4577771000004,287.4423448999987,,,,kc,001,2025-03-08_17h15.54.625,pleaseworkstroopcontrol,2024.2.4,60.04480543334218,2025-03-08 17h16.09.575847 -0800,
test,inconsistent,16,red,green,word,z,800,2000,45,45,0,z,1,0.7262031000027491,None,0,45,45,15,287.4577771000004,,,,,,,,,,,,,287.4440356999985,287.4577771000004,287.4577771000004,287.6575276000003,287.6575276000003,288.19377710000117,z,1,0.7262031000027491,None,5.930447492824746,288.194580899999,288.2081168000004,294.12518640000053,294.1099772999987,,,,kc,001,2025-03-08_17h15.54.625,pleaseworkstroopcontrol,2024.2.4,60.04480543334218,2025-03-08 17h16.09.575847 -0800,
test,inconsistent,2,yellow,green,word,z,800,2000,46,46,0,z,1,0.7690221000011661,None,0,46,46,1,294.12518640000053,,,,,,,,,,,,,294.11755170000106,294.12518640000053,294.12518640000053,294.3251922999989,294.3251922999989,294.910842199999,z,1,0.7690221000011661,None,3.0421628139876735,294.9117694999986,294.9252637999998,297.9590411999998,297.943780900001,,,,kc,001,2025-03-08_17h15.54.625,pleaseworkstroopcontrol,2024.2.4,60.04480543334218,2025-03-08 17h16.09.575847 -0800,
test,inconsistent,19,green,red,word,z,800,2000,47,47,0,z,1,0.8693018999983906,None,0,47,47,18,297.9590411999998,,,,,,,,,,,,,297.9500569000011,297.9590411999998,297.9590411999998,298.1593262999995,298.1593262999995,298.8445251000012,z,1,0.8693018999983906,None,4.133590209148585,298.84537529999943,298.85934850000194,302.9931371999992,302.9773806000012,,,,kc,001,2025-03-08_17h15.54.625,pleaseworkstroopcontrol,2024.2.4,60.04480543334218,2025-03-08 17h16.09.575847 -0800,
test,inconsistent,37,red,green,word,z,800,2000,48,48,0,z,1,0.748160299997835,None,0,48,48,36,302.9931371999992,,,,,,,,,,,,,302.9825301000019,302.9931371999992,302.9931371999992,303.19289109999954,303.19289109999954,303.74532009999893,z,1,0.748160299997835,None,4.840260748772831,303.7460742000003,303.7596483000016,308.5933522000014,308.57731240000066,,,,kc,001,2025-03-08_17h15.54.625,pleaseworkstroopcontrol,2024.2.4,60.04480543334218,2025-03-08 17h16.09.575847 -0800,
test,inconsistent,8,black,yellow,word,z,800,2000,49,49,0,z,1,0.6030289000009361,None,0,49,49,7,308.5933522000014,,,,,,,,,,,,,308.58301199999914,308.5933522000014,308.5933522000014,308.79367560000173,308.79367560000173,309.21244809999916,z,1,0.6030289000009361,None,2.7690758693855733,309.21323180000036,309.22684540000046,311.9943945999985,311.97817380000197,,,,kc,001,2025-03-08_17h15.54.625,pleaseworkstroopcontrol,2024.2.4,60.04480543334218,2025-03-08 17h16.09.575847 -0800,
test,inconsistent,30,blue,red,word,z,800,2000,50,50,0,z,1,0.779514999998355,None,0,50,50,29,311.9943945999985,,,,,,,,,,,,,311.98761450000165,311.9943945999985,311.9943945999985,312.1940036999986,312.1940036999986,312.7790481000011,z,1,0.779514999998355,None,4.225758705770842,312.77988919999916,312.7941022999985,317.0111118999994,316.99561130000075,,,,kc,001,2025-03-08_17h15.54.625,pleaseworkstroopcontrol,2024.2.4,60.04480543334218,2025-03-08 17h16.09.575847 -0800,
test,consistent,41,green,green,word,m,800,2000,51,51,0,m,1,0.5632955000000948,None,0,51,51,40,317.0111118999994,,,,,,,,,,,,,317.00112530000115,317.0111118999994,317.0111118999994,317.2108440000011,317.2108440000011,317.5795615999996,m,1,0.5632955000000948,None,1.6802948111633138,317.58038529999976,317.59443119999924,319.2610511999992,319.2456325999992,,,,kc,001,2025-03-08_17h15.54.625,pleaseworkstroopcontrol,2024.2.4,60.04480543334218,2025-03-08 17h16.09.575847 -0800,
test,inconsistent,25,red,blue,word,z,800,2000,52,52,0,z,1,0.6596634000015911,None,0,52,52,24,319.2610511999992,,,,,,,,,,,,,319.25092829999994,319.2610511999992,319.2610511999992,319.4611407000011,319.4611407000011,319.9296820000018,z,1,0.6596634000015911,None,4.8291289139004085,319.930634700002,319.9446037000016,324.7618007000019,324.74611899999945,,,,kc,001,2025-03-08_17h15.54.625,pleaseworkstroopcontrol,2024.2.4,60.04480543334218,2025-03-08 17h16.09.575847 -0800,
test,inconsistent,4,red,green,word,z,800,2000,53,53,0,z,1,0.580437399999937,None,0,53,53,3,324.7618007000019,,,,,,,,,,,,,324.7476615000014,324.7618007000019,324.7618007000019,324.96163460000025,324.96163460000025,325.3472968999995,z,1,0.580437399999937,None,2.4790449443677796,325.3479699000018,325.3618247000013,327.8285102000009,327.81308799999897,,,,kc,001,2025-03-08_17h15.54.625,pleaseworkstroopcontrol,2024.2.4,60.04480543334218,2025-03-08 17h16.09.575847 -0800,
test,inconsistent,9,red,blue,word,z,800,2000,54,54,0,z,1,0.6900046999980987,None,0,54,54,8,327.8285102000009,,,,,,,,,,,,,327.8145661999988,327.8285102000009,327.8285102000009,328.0284786000011,328.0284786000011,328.53067550000196,z,1,0.6900046999980987,None,3.24138998777029,328.5316735000015,328.54564599999867,331.7788851000005,331.7637345000003,,,,kc,001,2025-03-08_17h15.54.625,pleaseworkstroopcontrol,2024.2.4,60.04480543334218,2025-03-08 17h16.09.575847 -0800,
test,inconsistent,20,red,green,word,z,800,2000,55,55,0,z,1,0.6506988000001002,None,0,55,55,19,331.7788851000005,,,,,,,,,,,,,331.7655655999988,331.7788851000005,331.7788851000005,331.9790006000003,331.9790006000003,332.4320555999984,z,1,0.6506988000001002,None,4.967967594738046,332.43276360000164,332.4456567999987,337.41309810000166,337.39767310000025,,,,kc,001,2025-03-08_17h15.54.625,pleaseworkstroopcontrol,2024.2.4,60.04480543334218,2025-03-08 17h16.09.575847 -0800,
test,consistent,34,green,green,word,m,800,2000,56,56,0,m,1,0.7506270000012591,None,0,56,56,33,337.41309810000166,,,,,,,,,,,,,337.40421570000035,337.41309810000166,337.41309810000166,337.6130426000018,337.6130426000018,338.16603079999913,m,1,0.7506270000012591,None,3.8104982383867965,338.1671205999992,338.1793648999992,341.979989200001,341.96474709999893,,,,kc,001,2025-03-08_17h15.54.625,pleaseworkstroopcontrol,2024.2.4,60.04480543334218,2025-03-08 17h16.09.575847 -0800,
test,consistent,57,yellow,yellow,word,m,800,2000,57,57,0,m,1,0.7618594999985362,None,0,57,57,56,341.979989200001,,,,,,,,,,,,,341.9710841999986,341.979989200001,341.979989200001,342.1799557999984,342.1799557999984,342.7489999999998,m,1,0.7618594999985362,None,1.3139402343016295,342.7501768000002,342.7636206999996,344.063771000001,344.04814460000125,,,,kc,001,2025-03-08_17h15.54.625,pleaseworkstroopcontrol,2024.2.4,60.04480543334218,2025-03-08 17h16.09.575847 -0800,
test,inconsistent,10,green,yellow,word,z,800,2000,58,58,0,z,1,0.6969357999987551,None,0,58,58,9,344.063771000001,,,,,,,,,,,,,344.0542501000018,344.063771000001,344.063771000001,344.2635369000018,344.2635369000018,344.7655758000001,z,1,0.6969357999987551,None,1.1996729095628518,344.7664503999986,344.78010500000164,345.98024330000044,345.96499480000057,,,,kc,001,2025-03-08_17h15.54.625,pleaseworkstroopcontrol,2024.2.4,60.04480543334218,2025-03-08 17h16.09.575847 -0800,
test,inconsistent,39,red,yellow,word,z,800,2000,59,0,1,z,1,0.6705159000011918,None,1,0,59,38,345.98024330000044,,,,,,,,,,,,,345.96974989999944,345.98024330000044,345.98024330000044,346.1803757000016,346.1803757000016,346.6659615999997,z,1,0.6705159000011918,None,3.155570827065723,346.66714019999927,346.68047060000026,349.8306745000009,349.8153850000017,,,,kc,001,2025-03-08_17h15.54.625,pleaseworkstroopcontrol,2024.2.4,60.04480543334218,2025-03-08 17h16.09.575847 -0800,
test,inconsistent,59,yellow,green,word,z,800,2000,60,1,1,z,1,0.7448363000003155,None,1,1,60,58,349.8306745000009,,,,,,,,,,,,,349.8220943999986,349.8306745000009,349.8306745000009,350.0306511000017,350.0306511000017,350.58321259999866,z,1,0.7448363000003155,None,4.437950289824633,350.5840061000017,350.5975717000001,355.03127010000026,355.015965999999,,,,kc,001,2025-03-08_17h15.54.625,pleaseworkstroopcontrol,2024.2.4,60.04480543334218,2025-03-08 17h16.09.575847 -0800,
test,consistent,47,blue,blue,word,m,800,2000,61,2,1,m,1,0.6311970999995538,None,1,2,61,46,355.03127010000026,,,,,,,,,,,,,355.0217388000019,355.03127010000026,355.03127010000026,355.2311284999996,355.2311284999996,355.6674829000003,m,1,0.6311970999995538,None,5.4549920260243265,355.66815860000133,355.6812666000005,361.131760100001,361.11651730000085,,,,kc,001,2025-03-08_17h15.54.625,pleaseworkstroopcontrol,2024.2.4,60.04480543334218,2025-03-08 17h16.09.575847 -0800,
test,inconsistent,6,red,yellow,word,z,800,2000,62,3,1,z,1,0.6435517000027176,None,1,3,62,5,361.131760100001,,,,,,,,,,,,,361.12109879999844,361.131760100001,361.131760100001,361.3317825000013,361.3317825000013,361.7842950000013,z,1,0.6435517000027176,None,2.5983131147585095,361.78517400000055,361.79878140000073,364.39896790000057,364.3832966000009,,,,kc,001,2025-03-08_17h15.54.625,pleaseworkstroopcontrol,2024.2.4,60.04480543334218,2025-03-08 17h16.09.575847 -0800,
test,inconsistent,58,yellow,red,word,z,800,2000,63,4,1,z,1,0.5930712999979733,None,1,4,63,57,364.39896790000057,,,,,,,,,,,,,364.3896143999991,364.39896790000057,364.39896790000057,364.59904860000097,364.59904860000097,365.0011913999988,z,1,0.5930712999979733,None,5.80700173503689,365.0018928999998,365.01568450000195,370.8164527000008,370.80066069999884,,,,kc,001,2025-03-08_17h15.54.625,pleaseworkstroopcontrol,2024.2.4,60.04480543334218,2025-03-08 17h16.09.575847 -0800,
test,consistent,40,yellow,yellow,word,m,800,2000,64,5,1,m,1,0.6415869000011298,None,1,5,64,39,370.8164527000008,,,,,,,,,,,,,370.8021489999992,370.8164527000008,370.8164527000008,371.0163137000018,371.0163137000018,371.46851120000065,m,1,0.6415869000011298,None,5.924558638428095,371.46925620000184,371.4826202000004,377.400143400002,377.384073600002,,,,kc,001,2025-03-08_17h15.54.625,pleaseworkstroopcontrol,2024.2.4,60.04480543334218,2025-03-08 17h16.09.575847 -0800,
test,inconsistent,42,green,yellow,word,z,800,2000,65,6,1,z,1,0.7348988999983703,None,1,6,65,41,377.400143400002,,,,,,,,,,,,,377.3895857999996,377.400143400002,377.400143400002,377.58325200000036,377.58325200000036,378.15225669999927,z,1,0.7348988999983703,None,4.616013332598689,378.1530281000014,378.1670378000017,382.7838631000013,382.7689028999994,,,,kc,001,2025-03-08_17h15.54.625,pleaseworkstroopcontrol,2024.2.4,60.04480543334218,2025-03-08 17h16.09.575847 -0800,
test,inconsistent,37,red,green,word,z,800,2000,66,7,1,z,1,0.6673542999997153,None,1,7,66,36,382.7838631000013,,,,,,,,,,,,,382.7746036999997,382.7838631000013,382.7838631000013,382.9837866000016,382.9837866000016,383.4533510000001,z,1,0.6673542999997153,None,1.983175316139831,383.4541500000014,383.46763419999843,385.45088359999863,385.43520369999897,,,,kc,001,2025-03-08_17h15.54.625,pleaseworkstroopcontrol,2024.2.4,60.04480543334218,2025-03-08 17h16.09.575847 -0800,
test,consistent,54,green,green,word,m,800,2000,67,8,1,m,1,0.579602400001022,None,1,8,67,53,385.45088359999863,,,,,,,,,,,,,385.4406388999996,385.45088359999863,385.45088359999863,385.65122079999855,385.65122079999855,386.03516350000064,m,1,0.579602400001022,None,5.799637073756979,386.0358492000014,386.0507561000013,391.8348005000007,391.819426500002,,,,kc,001,2025-03-08_17h15.54.625,pleaseworkstroopcontrol,2024.2.4,60.04480543334218,2025-03-08 17h16.09.575847 -0800,
test,consistent,12,yellow,yellow,word,m,800,2000,68,9,1,m,1,0.576557700002013,None,1,9,68,11,391.8348005000007,,,,,,,,,,,,,391.826707799999,391.8348005000007,391.8348005000007,392.03469459999906,392.03469459999906,392.42061340000146,m,1,0.576557700002013,None,5.532158600596857,392.4213744000008,392.4350325999985,397.96899660000054,397.9534797000015,,,,kc,001,2025-03-08_17h15.54.625,pleaseworkstroopcontrol,2024.2.4,60.04480543334218,2025-03-08 17h16.09.575847 -0800,
test,inconsistent,53,red,yellow,word,z,800,2000,69,10,1,z,1,0.6963725999994494,None,1,10,69,52,397.96899660000054,,,,,,,,,,,,,397.95940490000066,397.96899660000054,397.96899660000054,398.1689781999994,398.1689781999994,398.67065730000104,z,1,0.6963725999994494,None,5.111013489125275,398.67147470000054,398.6852704000012,403.7860318999992,403.770417300002,,,,kc,001,2025-03-08_17h15.54.625,pleaseworkstroopcontrol,2024.2.4,60.04480543334218,2025-03-08 17h16.09.575847 -0800,
test,inconsistent,26,green,yellow,word,z,800,2000,70,11,1,z,1,0.6494851999996172,None,1,11,70,25,403.7860318999992,,,,,,,,,,,,,403.7773393999996,403.7860318999992,403.7860318999992,403.9860317999992,403.9860317999992,404.4384207000003,z,1,0.6494851999996172,None,5.232027045480468,404.43918530000155,404.4528085999991,409.67031320000024,409.6545917000003,,,,kc,001,2025-03-08_17h15.54.625,pleaseworkstroopcontrol,2024.2.4,60.04480543334218,2025-03-08 17h16.09.575847 -0800,
test,inconsistent,17,yellow,green,word,z,800,2000,71,12,1,z,1,0.725124999997206,None,1,12,71,16,409.67031320000024,,,,,,,,,,,,,409.6607459000006,409.67031320000024,409.67031320000024,409.87000780000017,409.87000780000017,410.4056754000012,z,1,0.725124999997206,None,4.526798813169609,410.40653720000046,410.4203082999993,414.9370880999995,414.92155840000123,,,,kc,001,2025-03-08_17h15.54.625,pleaseworkstroopcontrol,2024.2.4,60.04480543334218,2025-03-08 17h16.09.575847 -0800,
test,consistent,38,blue,blue,word,m,800,2000,72,13,1,m,1,0.7300636999971175,None,1,13,72,37,414.9370880999995,,,,,,,,,,,,,414.9286240000001,414.9370880999995,414.9370880999995,415.137185399999,415.137185399999,415.6728613999985,m,1,0.7300636999971175,None,1.0934632679867597,415.673611000002,415.68717900000047,416.770683499999,416.7549438999995,,,,kc,001,2025-03-08_17h15.54.625,pleaseworkstroopcontrol,2024.2.4,60.04480543334218,2025-03-08 17h16.09.575847 -0800,
test,consistent,1,red,red,word,m,800,2000,73,14,1,m,1,0.675373900001432,None,1,14,73,0,416.770683499999,,,,,,,,,,,,,416.75985460000084,416.770683499999,416.770683499999,416.9708701999989,416.9708701999989,417.45650939999905,m,1,0.675373900001432,None,2.7098248126192495,417.4572100000005,417.4708449999998,420.17105230000016,420.1557318000014,,,,kc,001,2025-03-08_17h15.54.625,pleaseworkstroopcontrol,2024.2.4,60.04480543334218,2025-03-08 17h16.09.575847 -0800,
test,inconsistent,52,red,green,word,z,800,2000,74,15,1,z,1,0.6547274000004109,None,1,15,74,51,420.17105230000016,,,,,,,,,,,,,420.15700279999874,420.17105230000016,420.17105230000016,420.37112089999937,420.37112089999937,420.83977589999995,z,1,0.6547274000004109,None,3.144425649269147,420.84058070000174,420.85455100000036,423.98802409999917,423.9727195000014,,,,kc,001,2025-03-08_17h15.54.625,pleaseworkstroopcontrol,2024.2.4,60.04480543334218,2025-03-08 17h16.09.575847 -0800,
test,consistent,57,yellow,yellow,word,m,800,2000,75,16,1,m,1,0.5548874999985856,None,1,16,75,56,423.98802409999917,,,,,,,,,,,,,423.9788957000019,423.98802409999917,423.98802409999917,424.18783070000063,424.18783070000063,424.55687129999933,m,1,0.5548874999985856,None,4.514959335781898,424.5577068999992,424.5717676999993,429.0721295000003,429.05615770000077,,,,kc,001,2025-03-08_17h15.54.625,pleaseworkstroopcontrol,2024.2.4,60.04480543334218,2025-03-08 17h16.09.575847 -0800,
test,inconsistent,2,yellow,green,word,z,800,2000,76,17,1,z,1,0.595073800002865,None,1,17,76,1,429.0721295000003,,,,,,,,,,,,,429.0575491000018,429.0721295000003,429.0721295000003,429.2721191000019,429.2721191000019,429.6740338999989,z,1,0.595073800002865,None,5.960132264561974,429.6747694000005,429.6885972000018,435.6392371000002,435.6235428,,,,kc,001,2025-03-08_17h15.54.625,pleaseworkstroopcontrol,2024.2.4,60.04480543334218,2025-03-08 17h16.09.575847 -0800,
test,consistent,45,red,red,word,m,800,2000,77,18,1,m,1,0.5240707999982988,None,1,18,77,44,435.6392371000002,,,,,,,,,,,,,435.62809819999893,435.6392371000002,435.6392371000002,435.83907589999944,435.83907589999944,436.17465209999864,m,1,0.5240707999982988,None,1.2991826434637235,436.1754626000002,436.18922179999936,437.48930459999974,437.4738929999985,,,,kc,001,2025-03-08_17h15.54.625,pleaseworkstroopcontrol,2024.2.4,60.04480543334218,2025-03-08 17h16.09.575847 -0800,
test,consistent,35,red,red,word,m,800,2000,78,19,1,m,1,0.48448650000136695,None,1,19,78,34,437.48930459999974,,,,,,,,,,,,,437.4755742999987,437.48930459999974,437.48930459999974,437.6893691000005,437.6893691000005,437.99131580000176,m,1,0.48448650000136695,None,4.3114445220569895,437.9919722000013,438.0060631999986,442.30655729999853,442.29103060000125,,,,kc,001,2025-03-08_17h15.54.625,pleaseworkstroopcontrol,2024.2.4,60.04480543334218,2025-03-08 17h16.09.575847 -0800,
test,inconsistent,24,blue,green,word,z,800,2000,79,20,1,z,1,0.6167346000001999,None,1,20,79,23,442.30655729999853,,,,,,,,,,,,,442.29788760000156,442.30655729999853,442.30655729999853,442.5066737999987,442.5066737999987,442.9259696000008,z,1,0.6167346000001999,None,4.841210538070197,442.92689750000136,442.93988869999885,447.77394370000184,447.75844750000033,,,,kc,001,2025-03-08_17h15.54.625,pleaseworkstroopcontrol,2024.2.4,60.04480543334218,2025-03-08 17h16.09.575847 -0800,
test,inconsistent,56,green,red,word,z,800,2000,80,21,1,z,1,0.7423616999985825,None,1,21,80,55,447.77394370000184,,,,,,,,,,,,,447.7658405000002,447.77394370000184,447.77394370000184,447.97397379999893,447.97397379999893,448.526082700002,z,1,0.7423616999985825,None,1.5750054076777338,448.5268279000011,448.54034279999905,450.10730650000187,450.09165510000093,,,,kc,001,2025-03-08_17h15.54.625,pleaseworkstroopcontrol,2024.2.4,60.04480543334218,2025-03-08 17h16.09.575847 -0800,
test,inconsistent,33,yellow,green,word,z,800,2000,81,22,1,z,1,0.7103445000029751,None,1,22,81,32,450.10730650000187,,,,,,,,,,,,,450.0981389000008,450.10730650000187,450.10730650000187,450.30753280000135,450.30753280000135,450.82613689999926,z,1,0.7103445000029751,None,2.0394090649558896,450.8269352999996,450.84055309999894,452.8744165999997,452.85895209999944,,,,kc,001,2025-03-08_17h15.54.625,pleaseworkstroopcontrol,2024.2.4,60.04480543334218,2025-03-08 17h16.09.575847 -0800,
test,consistent,49,yellow,yellow,word,m,800,2000,82,23,1,m,1,0.5888311000016984,None,1,23,82,48,452.8744165999997,,,,,,,,,,,,,452.8603957999985,452.8744165999997,452.8744165999997,453.07430699999895,453.07430699999895,453.4773731999994,m,1,0.5888311000016984,None,3.0779330363151054,453.4782047000008,453.4908749999995,456.55819469999915,456.54220429999987,,,,kc,001,2025-03-08_17h15.54.625,pleaseworkstroopcontrol,2024.2.4,60.04480543334218,2025-03-08 17h16.09.575847 -0800,
test,inconsistent,55,green,yellow,word,z,800,2000,83,24,1,z,1,0.5178310999981477,None,1,24,83,54,456.55819469999915,,,,,,,,,,,,,456.54977439999857,456.55819469999915,456.55819469999915,456.7582078000014,456.7582078000014,457.0929378000001,z,1,0.5178310999981477,None,4.211360011917947,457.0937862999999,457.1082048999997,461.30825919999916,461.2923014000007,,,,kc,001,2025-03-08_17h15.54.625,pleaseworkstroopcontrol,2024.2.4,60.04480543334218,2025-03-08 17h16.09.575847 -0800,
test,inconsistent,14,yellow,blue,word,z,800,2000,84,25,1,z,1,0.6853295000000799,None,1,25,84,13,461.30825919999916,,,,,,,,,,,,,461.29913149999993,461.30825919999916,461.30825919999916,461.50851239999974,461.50851239999974,462.0106626000015,z,1,0.6853295000000799,None,3.8509257531528256,462.0113358000017,462.0250640999984,465.8757345999984,465.8598998000016,,,,kc,001,2025-03-08_17h15.54.625,pleaseworkstroopcontrol,2024.2.4,60.04480543334218,2025-03-08 17h16.09.575847 -0800,
test,inconsistent,48,yellow,red,word,z,800,2000,85,26,1,z,1,0.5972204999998212,None,1,26,85,47,465.8757345999984,,,,,,,,,,,,,465.8612632000004,465.8757345999984,465.8757345999984,466.0756459000004,466.0756459000004,466.47753490000105,z,1,0.5972204999998212,None,5.008849526638532,466.47821269999986,466.49203430000125,471.4923928999997,471.4772386000004,,,,kc,001,2025-03-08_17h15.54.625,pleaseworkstroopcontrol,2024.2.4,60.04480543334218,2025-03-08 17h16.09.575847 -0800,
test,consistent,18,red,red,word,m,800,2000,86,27,1,m,1,0.7301702000004298,None,1,27,86,17,471.4923928999997,,,,,,,,,,,,,471.4838263999991,471.4923928999997,471.4923928999997,471.6925459999984,471.6925459999984,472.2282871999996,m,1,0.7301702000004298,None,4.60781988620533,472.2290964999993,472.2426703000019,476.84318709999934,476.82779030000165,,,,kc,001,2025-03-08_17h15.54.625,pleaseworkstroopcontrol,2024.2.4,60.04480543334218,2025-03-08 17h16.09.575847 -0800,
test,consistent,28,yellow,yellow,word,m,800,2000,87,28,1,m,1,0.7200221000020974,None,1,28,87,27,476.84318709999934,,,,,,,,,,,,,476.83420399999886,476.84318709999934,476.84318709999934,477.0431263999999,477.0431263999999,477.57898130000103,m,1,0.7200221000020974,None,2.2472489001358844,477.57993400000123,477.59323869999935,479.8270001000019,479.81129059999876,,,,kc,001,2025-03-08_17h15.54.625,pleaseworkstroopcontrol,2024.2.4,60.04480543334218,2025-03-08 17h16.09.575847 -0800,
test,inconsistent,29,green,blue,word,z,800,2000,88,29,1,z,1,0.7938934999983758,None,1,29,88,28,479.8270001000019,,,,,,,,,,,,,479.8175377000007,479.8270001000019,479.8270001000019,480.0270243999985,480.0270243999985,480.62905669999964,z,1,0.7938934999983758,None,4.976894787728008,480.62979039999846,480.6435973000007,485.6108471000007,485.5950933999993,,,,kc,001,2025-03-08_17h15.54.625,pleaseworkstroopcontrol,2024.2.4,60.04480543334218,2025-03-08 17h16.09.575847 -0800,
test,inconsistent,10,green,yellow,word,z,800,2000,89,30,1,z,1,1.1671695999975782,None,1,30,89,9,485.6108471000007,,,,,,,,,,,,,485.5964875999998,485.6108471000007,485.6108471000007,485.81073990000004,485.81073990000004,486.7948858000018,z,1,1.1671695999975782,None,5.440101295642547,486.7952976000015,486.81058960000155,492.24465319999945,492.2292970999988,,,,kc,001,2025-03-08_17h15.54.625,pleaseworkstroopcontrol,2024.2.4,60.04480543334218,2025-03-08 17h16.09.575847 -0800,
test,inconsistent,20,red,green,word,z,800,2000,90,31,1,z,1,0.5300786000007065,None,1,31,90,19,492.24465319999945,,,,,,,,,,,,,492.2348942999997,492.24465319999945,492.24465319999945,492.4447231000013,492.4447231000013,492.7802506000007,z,1,0.5300786000007065,None,3.84473696033033,492.7813672000011,492.7946626000012,496.6288533000006,496.6130026999999,,,,kc,001,2025-03-08_17h15.54.625,pleaseworkstroopcontrol,2024.2.4,60.04480543334218,2025-03-08 17h16.09.575847 -0800,
test,inconsistent,13,purple,red,word,z,800,2000,91,32,1,z,1,0.5958667999984755,None,1,32,91,12,496.6288533000006,,,,,,,,,,,,,496.6207054000006,496.6288533000006,496.6288533000006,496.8288891000011,496.8288891000011,497.2308333000001,z,1,0.5958667999984755,None,2.006059672315806,497.2315497000018,497.24510210000153,499.24545020000005,499.22990330000175,,,,kc,001,2025-03-08_17h15.54.625,pleaseworkstroopcontrol,2024.2.4,60.04480543334218,2025-03-08 17h16.09.575847 -0800,
test,inconsistent,44,green,red,word,z,800,2000,92,33,1,z,1,0.6249949000011839,None,1,33,92,43,499.24545020000005,,,,,,,,,,,,,499.23723280000195,499.24545020000005,499.24545020000005,499.445410100001,499.445410100001,499.88154049999866,z,1,0.6249949000011839,None,3.7293902077017975,499.8824429000015,499.89539720000175,503.6126882999997,503.5971615000017,,,,kc,001,2025-03-08_17h15.54.625,pleaseworkstroopcontrol,2024.2.4,60.04480543334218,2025-03-08 17h16.09.575847 -0800,
test,inconsistent,4,red,green,word,z,800,2000,93,34,1,z,1,0.6832307999975455,None,1,34,93,3,503.6126882999997,,,,,,,,,,,,,503.60221340000135,503.6126882999997,503.6126882999997,503.8127428000007,503.8127428000007,504.2989368000017,z,1,0.6832307999975455,None,5.8251506187856545,504.2998149999985,504.31294100000014,510.1296097000013,510.1140760999988,,,,kc,001,2025-03-08_17h15.54.625,pleaseworkstroopcontrol,2024.2.4,60.04480543334218,2025-03-08 17h16.09.575847 -0800,
test,inconsistent,11,green,red,word,z,800,2000,94,35,1,z,1,0.5457470000001194,None,1,35,94,10,510.1296097000013,,,,,,,,,,,,,510.11939749999874,510.1296097000013,510.1296097000013,510.3299776999993,510.3299776999993,510.6822871000004,z,1,0.5457470000001194,None,5.959767356939768,510.6832261999989,510.6964509999998,516.6469413999985,516.6321035000001,,,,kc,001,2025-03-08_17h15.54.625,pleaseworkstroopcontrol,2024.2.4,60.04480543334218,2025-03-08 17h16.09.575847 -0800,
test,inconsistent,19,green,red,word,z,800,2000,95,36,1,z,1,0.5876871000000392,None,1,36,95,18,516.6469413999985,,,,,,,,,,,,,516.6336780999991,516.6469413999985,516.6469413999985,516.8471677999987,516.8471677999987,517.2492268999995,z,1,0.5876871000000392,None,4.923851079719814,517.2499434000019,517.2641886999991,522.1811774999987,522.1657668000007,,,,kc,001,2025-03-08_17h15.54.625,pleaseworkstroopcontrol,2024.2.4,60.04480543334218,2025-03-08 17h16.09.575847 -0800,
test,consistent,46,yellow,yellow,word,m,800,2000,96,37,1,z,0,0.5647948000005272,None,1,37,96,45,522.1811774999987,,,,,,,,,,,,,522.1730338999987,522.1811774999987,522.1811774999987,522.3811550999999,522.3811550999999,522.7498626999986,z,0,0.5647948000005272,None,4.75188634073773,522.7507393000014,522.7646712999995,527.5148866000018,527.4992071999986,,,,kc,001,2025-03-08_17h15.54.625,pleaseworkstroopcontrol,2024.2.4,60.04480543334218,2025-03-08 17h16.09.575847 -0800,
test,inconsistent,22,red,yellow,word,z,800,2000,97,38,1,z,1,0.7772746000009647,None,1,38,97,21,527.5148866000018,,,,,,,,,,,,,527.5050274999994,527.5148866000018,527.5148866000018,527.7150088999988,527.7150088999988,528.3001339000002,z,1,0.7772746000009647,None,2.6990721609356108,528.300798799999,528.3149887,531.0153997999987,530.9996324999993,,,,kc,001,2025-03-08_17h15.54.625,pleaseworkstroopcontrol,2024.2.4,60.04480543334218,2025-03-08 17h16.09.575847 -0800,
test,inconsistent,5,orange,blue,word,z,800,2000,98,39,1,z,1,0.8156429999980901,None,1,39,98,4,531.0153997999987,,,,,,,,,,,,,531.0065766000007,531.0153997999987,531.0153997999987,531.2153983999997,531.2153983999997,531.8346738,z,1,0.8156429999980901,None,2.1333992213475725,531.8355505,531.8487482000019,533.9822047000016,533.9667047000003,,,,kc,001,2025-03-08_17h15.54.625,pleaseworkstroopcontrol,2024.2.4,60.04480543334218,2025-03-08 17h16.09.575847 -0800,
test,consistent,36,red,red,word,m,800,2000,99,40,1,m,1,0.5749436000005517,None,1,40,99,35,533.9822047000016,,,,,,,,,,,,,533.9725036999989,533.9822047000016,533.9822047000016,534.1824070000002,534.1824070000002,534.5679597999988,m,1,0.5749436000005517,None,3.054786089837011,534.568699200001,534.5822617000013,537.6328372999997,537.6173065000003,,,,kc,001,2025-03-08_17h15.54.625,pleaseworkstroopcontrol,2024.2.4,60.04480543334218,2025-03-08 17h16.09.575847 -0800,
test,inconsistent,8,black,yellow,word,z,800,2000,100,41,1,z,1,0.5854588000001968,None,1,41,100,7,537.6328372999997,,,,,,,,,,,,,537.6242421999996,537.6328372999997,537.6328372999997,537.8325626000005,537.8325626000005,538.2352021000006,z,1,0.5854588000001968,None,4.684200185132145,538.2359600000018,538.2500404999992,542.9330859000002,542.9178146000013,,,,kc,001,2025-03-08_17h15.54.625,pleaseworkstroopcontrol,2024.2.4,60.04480543334218,2025-03-08 17h16.09.575847 -0800,
test,inconsistent,16,red,green,word,z,800,2000,101,42,1,z,1,0.6901026000014099,None,1,42,101,15,542.9330859000002,,,,,,,,,,,,,542.9260429999995,542.9330859000002,542.9330859000002,543.1328985,543.1328985,543.6352676999995,z,1,0.6901026000014099,None,5.838677374596455,543.6360827999997,543.6498011000003,549.483615000001,549.4684909999996,,,,kc,001,2025-03-08_17h15.54.625,pleaseworkstroopcontrol,2024.2.4,60.04480543334218,2025-03-08 17h16.09.575847 -0800,
test,inconsistent,9,red,blue,word,z,800,2000,102,43,1,z,1,0.6752791999970214,None,1,43,102,8,549.483615000001,,,,,,,,,,,,,549.4700378000016,549.483615000001,549.483615000001,549.6836976000013,549.6836976000013,550.1692870000006,z,1,0.6752791999970214,None,1.8506532285855906,550.170212699999,550.1837916000004,552.0339741999996,552.0186361000015,,,,kc,001,2025-03-08_17h15.54.625,pleaseworkstroopcontrol,2024.2.4,60.04480543334218,2025-03-08 17h16.09.575847 -0800,
test,consistent,23,green,green,word,m,800,2000,103,44,1,m,1,0.7826716999989003,None,1,44,103,22,552.0339741999996,,,,,,,,,,,,,552.0246552999997,552.0339741999996,552.0339741999996,552.2337804999988,552.2337804999988,552.8198459000014,m,1,0.7826716999989003,None,1.3393104343690279,552.8205612999991,552.8341943999985,554.167822899999,554.1518813000002,,,,kc,001,2025-03-08_17h15.54.625,pleaseworkstroopcontrol,2024.2.4,60.04480543334218,2025-03-08 17h16.09.575847 -0800,
test,inconsistent,3,blue,red,word,z,800,2000,104,45,1,z,1,0.7426102999997966,None,1,45,104,2,554.167822899999,,,,,,,,,,,,,554.1579316999996,554.167822899999,554.167822899999,554.367921699999,554.367921699999,554.9197497999994,z,1,0.7426102999997966,None,4.070848279617836,554.9204461000008,554.9343493999986,559.0014679000014,558.9859175999991,,,,kc,001,2025-03-08_17h15.54.625,pleaseworkstroopcontrol,2024.2.4,60.04480543334218,2025-03-08 17h16.09.575847 -0800,
test,inconsistent,30,blue,red,word,z,800,2000,105,46,1,z,1,0.8273654000004171,None,1,46,105,29,559.0014679000014,,,,,,,,,,,,,558.9875409000015,559.0014679000014,559.0014679000014,559.2012012999985,559.2012012999985,559.8368655999984,z,1,0.8273654000004171,None,1.1487791428532397,559.8375726000013,559.8513174,561.0009742000002,560.9861530999988,,,,kc,001,2025-03-08_17h15.54.625,pleaseworkstroopcontrol,2024.2.4,60.04480543334218,2025-03-08 17h16.09.575847 -0800,
test,inconsistent,25,red,blue,word,z,800,2000,106,47,1,z,1,0.7512521999997261,None,1,47,106,24,561.0009742000002,,,,,,,,,,,,,560.9933577000011,561.0009742000002,561.0009742000002,561.2013267000002,561.2013267000002,561.754136800002,z,1,0.7512521999997261,None,4.934721288259745,561.7549547999988,561.7682878999985,566.7019665000007,566.6865875000003,,,,kc,001,2025-03-08_17h15.54.625,pleaseworkstroopcontrol,2024.2.4,60.04480543334218,2025-03-08 17h16.09.575847 -0800,
test,consistent,7,green,green,word,m,800,2000,107,48,1,m,1,0.7015430999999808,None,1,48,107,6,566.7019665000007,,,,,,,,,,,,,566.6926463999989,566.7019665000007,566.7019665000007,566.9018151000018,566.9018151000018,567.4208800999986,m,1,0.7015430999999808,None,5.461875846292096,567.421725799999,567.4355657999986,572.8860157000017,572.8705808999985,,,,kc,001,2025-03-08_17h15.54.625,pleaseworkstroopcontrol,2024.2.4,60.04480543334218,2025-03-08 17h16.09.575847 -0800,
test,consistent,51,red,red,word,m,800,2000,108,49,1,m,1,0.6437633999994432,None,1,49,108,50,572.8860157000017,,,,,,,,,,,,,572.8755487999988,572.8860157000017,572.8860157000017,573.0861421000009,573.0861421000009,573.5383679000006,m,1,0.6437633999994432,None,4.122663411355959,573.539471600001,573.5525022000002,577.6696880999989,577.6544414000018,,,,kc,001,2025-03-08_17h15.54.625,pleaseworkstroopcontrol,2024.2.4,60.04480543334218,2025-03-08 17h16.09.575847 -0800,
test,consistent,43,green,green,word,m,800,2000,109,50,1,m,1,0.625131999997393,None,1,50,109,42,577.6696880999989,,,,,,,,,,,,,577.6600609000016,577.6696880999989,577.6696880999989,577.8697973999988,577.8697973999988,578.3046888999997,m,1,0.625131999997393,None,5.552058035263037,578.3055411999994,578.3199574999999,583.870347,583.8543911000015,,,,kc,001,2025-03-08_17h15.54.625,pleaseworkstroopcontrol,2024.2.4,60.04480543334218,2025-03-08 17h16.09.575847 -0800,
test,inconsistent,27,green,red,word,z,800,2000,110,51,1,z,1,0.6563613999969675,None,1,51,110,26,583.870347,,,,,,,,,,,,,583.8556720000015,583.870347,583.870347,584.0704698000009,584.0704698000009,584.5388301999992,z,1,0.6563613999969675,None,1.7685447221235013,584.5393814999989,584.5536157999995,586.3208664000013,586.3051415000009,,,,kc,001,2025-03-08_17h15.54.625,pleaseworkstroopcontrol,2024.2.4,60.04480543334218,2025-03-08 17h16.09.575847 -0800,
test,inconsistent,15,yellow,red,word,z,800,2000,111,52,1,z,1,0.6125393000002077,None,1,52,111,14,586.3208664000013,,,,,,,,,,,,,586.3118928000004,586.3208664000013,586.3208664000013,586.5209141000014,586.5209141000014,586.9396717999989,z,1,0.6125393000002077,None,3.4685644349960945,586.940467299999,586.9539463000001,590.4212111999987,590.4053198000001,,,,kc,001,2025-03-08_17h15.54.625,pleaseworkstroopcontrol,2024.2.4,60.04480543334218,2025-03-08 17h16.09.575847 -0800,
test,inconsistent,31,yellow,red,word,z,800,2000,112,53,1,z,1,0.8081950000014331,None,1,53,112,30,590.4212111999987,,,,,,,,,,,,,590.4070073000003,590.4212111999987,590.4212111999987,590.6211532000016,590.6211532000016,591.2402073000012,z,1,0.8081950000014331,None,1.3103806425374183,591.2408754999997,591.2544147000008,592.5545262000014,592.5392726999999,,,,kc,001,2025-03-08_17h15.54.625,pleaseworkstroopcontrol,2024.2.4,60.04480543334218,2025-03-08 17h16.09.575847 -0800,
test,consistent,34,green,green,word,m,800,2000,113,54,1,m,1,0.6150477000010142,None,1,54,113,33,592.5545262000014,,,,,,,,,,,,,592.5462356999997,592.5545262000014,592.5545262000014,592.7544832999993,592.7544832999993,593.1740190000019,m,1,0.6150477000010142,None,5.527001896537463,593.1749329000013,593.1881603000002,598.7052561000019,598.6898055999991,,,,kc,001,2025-03-08_17h15.54.625,pleaseworkstroopcontrol,2024.2.4,60.04480543334218,2025-03-08 17h16.09.575847 -0800,
test,inconsistent,50,yellow,green,word,z,800,2000,114,55,1,z,1,0.6527373000026273,None,1,55,114,49,598.7052561000019,,,,,,,,,,,,,598.6975472999984,598.7052561000019,598.7052561000019,598.9051646000007,598.9051646000007,599.3740165000017,z,1,0.6527373000026273,None,3.3014909736524762,599.3747583000004,599.3889780999998,602.6890028000016,602.6734677999993,,,,kc,001,2025-03-08_17h15.54.625,pleaseworkstroopcontrol,2024.2.4,60.04480543334218,2025-03-08 17h16.09.575847 -0800,
test,inconsistent,21,black,yellow,word,z,800,2000,115,56,1,z,1,0.5604969000014535,None,1,56,115,20,602.6890028000016,,,,,,,,,,,,,602.6816201000001,602.6890028000016,602.6890028000016,602.8892282000015,602.8892282000015,603.2575805999986,z,1,0.5604969000014535,None,5.20981102535451,603.2584415000019,603.2723431999984,608.4729200000002,608.4572684000013,,,,kc,001,2025-03-08_17h15.54.625,pleaseworkstroopcontrol,2024.2.4,60.04480543334218,2025-03-08 17h16.09.575847 -0800,
test,consistent,41,green,green,word,m,800,2000,116,57,1,m,1,0.5904097999991791,None,1,57,116,40,608.4729200000002,,,,,,,,,,,,,608.4629835000014,608.4729200000002,608.4729200000002,608.6730027000012,608.6730027000012,609.0754511000014,m,1,0.5904097999991791,None,4.932204841846657,609.0762873999993,609.0898106999994,614.0235079000013,614.0078303000009,,,,kc,001,2025-03-08_17h15.54.625,pleaseworkstroopcontrol,2024.2.4,60.04480543334218,2025-03-08 17h16.09.575847 -0800,
test,inconsistent,32,orange,green,word,z,800,2000,117,58,1,z,1,0.5568134999994072,None,1,58,117,31,614.0235079000013,,,,,,,,,,,,,614.0163388000001,614.0235079000013,614.0235079000013,614.2236254000018,614.2236254000018,614.592480700001,z,1,0.5568134999994072,None,5.4353603922547915,614.593181799999,614.6067600999995,620.0407360999998,620.0251959999987,,,,kc,001,2025-03-08_17h15.54.625,pleaseworkstroopcontrol,2024.2.4,60.04480543334218,2025-03-08 17h16.09.575847 -0800,
test,inconsistent,4,red,green,word,z,800,2000,118,0,2,z,1,0.607759000002261,None,2,0,118,3,620.0407360999998,,,,,,,,,,,,,620.0299090000008,620.0407360999998,620.0407360999998,620.2408624999989,620.2408624999989,620.6594710999998,z,1,0.607759000002261,None,2.005203635857307,620.6602158999995,620.6742140999995,622.6742156,622.6582772000002,,,,kc,001,2025-03-08_17h15.54.625,pleaseworkstroopcontrol,2024.2.4,60.04480543334218,2025-03-08 17h16.09.575847 -0800,
test,consistent,41,green,green,word,m,800,2000,119,1,2,m,1,0.7445979000003717,None,2,1,119,40,622.6742156,,,,,,,,,,,,,622.6651705000004,622.6742156,622.6742156,622.8575191000018,622.8575191000018,623.4265414000001,m,1,0.7445979000003717,None,5.199071949938268,623.4272330999993,623.4413941999992,628.6418822000014,628.6260848999991,,,,kc,001,2025-03-08_17h15.54.625,pleaseworkstroopcontrol,2024.2.4,60.04480543334218,2025-03-08 17h16.09.575847 -0800,
test,inconsistent,2,yellow,green,word,z,800,2000,120,2,2,z,1,0.5397188999995706,None,2,2,120,1,628.6418822000014,,,,,,,,,,,,,628.6332750000001,628.6418822000014,628.6418822000014,628.8415764000019,628.8415764000019,629.1936831999992,z,1,0.5397188999995706,None,4.5527623468698835,629.1945255999999,629.2080184000006,633.7585662999991,633.7430898999992,,,,kc,001,2025-03-08_17h15.54.625,pleaseworkstroopcontrol,2024.2.4,60.04480543334218,2025-03-08 17h16.09.575847 -0800,
test,inconsistent,37,red,green,word,z,800,2000,121,3,2,z,1,0.7121038999976008,None,2,3,121,36,633.7585662999991,,,,,,,,,,,,,633.7482550999994,633.7585662999991,633.7585662999991,633.9586903000018,633.9586903000018,634.4776415999986,z,1,0.7121038999976008,None,1.2946545114985173,634.4784279999985,634.4920023999985,635.7756904000016,635.7599479000019,,,,kc,001,2025-03-08_17h15.54.625,pleaseworkstroopcontrol,2024.2.4,60.04480543334218,2025-03-08 17h16.09.575847 -0800,
test,inconsistent,17,yellow,green,word,z,800,2000,122,4,2,z,1,0.6683106000018597,None,2,4,122,16,635.7756904000016,,,,,,,,,,,,,635.7675158999991,635.7756904000016,635.7756904000016,635.9756582000009,635.9756582000009,636.4608440000011,z,1,0.6683106000018597,None,2.810504162288726,636.4615292000017,636.475658899999,639.275751000001,639.2598092000007,,,,kc,001,2025-03-08_17h15.54.625,pleaseworkstroopcontrol,2024.2.4,60.04480543334218,2025-03-08 17h16.09.575847 -0800,
test,inconsistent,31,yellow,red,word,z,800,2000,123,5,2,z,1,0.6043925999983912,None,2,5,123,30,639.275751000001,,,,,,,,,,,,,639.261037100001,639.275751000001,639.275751000001,639.4592961999988,639.4592961999988,639.8947026999995,z,1,0.6043925999983912,None,3.2022428443396502,639.8954469000018,639.9091141999997,643.1099069000011,643.0940789999986,,,,kc,001,2025-03-08_17h15.54.625,pleaseworkstroopcontrol,2024.2.4,60.04480543334218,2025-03-08 17h16.09.575847 -0800,
test,inconsistent,32,orange,green,word,z,800,2000,124,6,2,z,1,0.9650446000014199,None,2,6,124,31,643.1099069000011,,,,,,,,,,,,,643.1027366000017,643.1099069000011,643.1099069000011,643.3095665000001,643.3095665000001,644.0787954000007,z,1,0.9650446000014199,None,2.8573332401021467,644.0795246000016,644.0931530000016,646.9434239000002,646.9279515000017,,,,kc,001,2025-03-08_17h15.54.625,pleaseworkstroopcontrol,2024.2.4,60.04480543334218,2025-03-08 17h16.09.575847 -0800,
test,consistent,46,yellow,yellow,word,m,800,2000,125,7,2,m,1,0.6844851999994717,None,2,7,125,45,646.9434239000002,,,,,,,,,,,,,646.9353222999998,646.9434239000002,646.9434239000002,647.1434832000014,647.1434832000014,647.6457570999992,m,1,0.6844851999994717,None,1.3453765554442,647.6464985999992,647.6600340000005,648.9937301999998,648.9779348000011,,,,kc,001,2025-03-08_17h15.54.625,pleaseworkstroopcontrol,2024.2.4,60.04480543334218,2025-03-08 17h16.09.575847 -0800,
test,inconsistent,15,yellow,red,word,z,800,2000,126,8,2,z,1,0.9832658000013907,None,2,8,126,14,648.9937301999998,,,,,,,,,,,,,648.9792750999986,648.9937301999998,648.9937301999998,649.1935812000011,649.1935812000011,649.9797306,z,1,0.9832658000013907,None,4.751500036813562,649.9806414999985,649.9935307000014,654.7437099999988,654.7285149999989,,,,kc,001,2025-03-08_17h15.54.625,pleaseworkstroopcontrol,2024.2.4,60.04480543334218,2025-03-08 17h16.09.575847 -0800,
test,inconsistent,20,red,green,word,z,800,2000,127,9,2,z,1,0.7292859999979555,None,2,9,127,19,654.7437099999988,,,,,,,,,,,,,654.7338793999988,654.7437099999988,654.7437099999988,654.9437199999993,654.9437199999993,655.4801224000003,z,1,0.7292859999979555,None,5.994560421747348,655.4808202999993,655.4939450999991,661.4780461000009,661.4635430999988,,,,kc,001,2025-03-08_17h15.54.625,pleaseworkstroopcontrol,2024.2.4,60.04480543334218,2025-03-08 17h16.09.575847 -0800,
test,inconsistent,11,green,red,word,z,800,2000,128,10,2,z,1,0.5913849999997183,None,2,10,128,10,661.4780461000009,,,,,,,,,,,,,661.470427100001,661.4780461000009,661.4780461000009,661.6777408000016,661.6777408000016,662.0802269000014,z,1,0.5913849999997183,None,4.822062717425343,662.0810259999998,662.094615500002,666.9117784000009,666.8964995999995,,,,kc,001,2025-03-08_17h15.54.625,pleaseworkstroopcontrol,2024.2.4,60.04480543334218,2025-03-08 17h16.09.575847 -0800,
test,inconsistent,55,green,yellow,word,z,800,2000,129,11,2,z,1,0.5872218000004068,None,2,11,129,54,666.9117784000009,,,,,,,,,,,,,666.8977935000003,666.9117784000009,666.9117784000009,667.112034400001,667.112034400001,667.513734600001,z,1,0.5872218000004068,None,2.6308030148214496,667.5145008,667.5288661999984,670.1454780999993,670.1296412000011,,,,kc,001,2025-03-08_17h15.54.625,pleaseworkstroopcontrol,2024.2.4,60.04480543334218,2025-03-08 17h16.09.575847 -0800,
test,inconsistent,25,red,blue,word,z,800,2000,130,12,2,z,1,0.777504300000146,None,2,12,130,24,670.1454780999993,,,,,,,,,,,,,670.132035300001,670.1454780999993,670.1454780999993,670.345734999999,670.345734999999,670.9312661000004,z,1,0.777504300000146,None,5.339548648317964,670.9319772000017,670.9458113000001,676.2797981000003,676.263956499999,,,,kc,001,2025-03-08_17h15.54.625,pleaseworkstroopcontrol,2024.2.4,60.04480543334218,2025-03-08 17h16.09.575847 -0800,
test,consistent,1,red,red,word,m,800,2000,131,13,2,m,1,0.6316690999992716,None,2,13,131,0,676.2797981000003,,,,,,,,,,,,,676.2653925000013,676.2797981000003,676.2797981000003,676.4798191000009,676.4798191000009,676.9148212,m,1,0.6316690999992716,None,2.295534142950854,676.9155687999992,676.9297967999992,679.2132310999987,679.1978047000011,,,,kc,001,2025-03-08_17h15.54.625,pleaseworkstroopcontrol,2024.2.4,60.04480543334218,2025-03-08 17h16.09.575847 -0800,
test,inconsistent,52,red,green,word,z,800,2000,132,14,2,z,1,0.6891666000010446,None,2,14,132,51,679.2132310999987,,,,,,,,,,,,,679.1994725000004,679.2132310999987,679.2132310999987,679.4130119000001,679.4130119000001,679.9151211999997,z,1,0.6891666000010446,None,3.0979024897364833,679.9158777000011,679.930191899999,683.0133965999994,682.9983027999988,,,,kc,001,2025-03-08_17h15.54.625,pleaseworkstroopcontrol,2024.2.4,60.04480543334218,2025-03-08 17h16.09.575847 -0800,
test,inconsistent,50,yellow,green,word,z,800,2000,133,15,2,z,1,0.5994454000028782,None,2,15,133,49,683.0133965999994,,,,,,,,,,,,,683.0046847000012,683.0133965999994,683.0133965999994,683.2132955000015,683.2132955000015,683.6156140999992,z,1,0.5994454000028782,None,5.9436791700286316,683.6164467999988,683.630301000001,689.5640776,689.5487861000001,,,,kc,001,2025-03-08_17h15.54.625,pleaseworkstroopcontrol,2024.2.4,60.04480543334218,2025-03-08 17h16.09.575847 -0800,
test,inconsistent,24,blue,green,word,z,800,2000,134,16,2,z,1,0.556564200000139,None,2,16,134,23,689.5640776,,,,,,,,,,,,,689.5560697000001,689.5640776,689.5640776,689.7642200000009,689.7642200000009,690.1329110000006,z,1,0.556564200000139,None,1.5478377445113964,690.1336386000003,690.1476591999999,691.6810538999998,691.665506100002,,,,kc,001,2025-03-08_17h15.54.625,pleaseworkstroopcontrol,2024.2.4,60.04480543334218,2025-03-08 17h16.09.575847 -0800,
test,inconsistent,8,black,yellow,word,z,800,2000,135,17,2,z,1,0.5474482999998145,None,2,17,135,7,691.6810538999998,,,,,,,,,,,,,691.6728739999999,691.6810538999998,691.6810538999998,691.8812720999995,691.8812720999995,692.2335684999998,z,1,0.5474482999998145,None,4.668810318044724,692.2343132999995,692.2481246999996,696.9144532999999,696.8988419999987,,,,kc,001,2025-03-08_17h15.54.625,pleaseworkstroopcontrol,2024.2.4,60.04480543334218,2025-03-08 17h16.09.575847 -0800,
test,inconsistent,42,green,yellow,word,z,800,2000,136,18,2,z,1,0.6662802999999258,None,2,18,136,41,696.9144532999999,,,,,,,,,,,,,696.904019900001,696.9144532999999,696.9144532999999,697.098489,697.098489,697.5839363999985,z,1,0.6662802999999258,None,5.663104782543127,697.5846438000008,697.5985137999996,703.2488051,703.2331931000008,,,,kc,001,2025-03-08_17h15.54.625,pleaseworkstroopcontrol,2024.2.4,60.04480543334218,2025-03-08 17h16.09.575847 -0800,
test,inconsistent,9,red,blue,word,z,800,2000,137,19,2,z,1,0.6361117000014929,None,2,19,137,8,703.2488051,,,,,,,,,,,,,703.2383114000004,703.2488051,703.2488051,703.4489716999997,703.4489716999997,703.9011303000007,z,1,0.6361117000014929,None,2.560194476441743,703.901880100002,703.915608700001,706.4658430999989,706.4504973000003,,,,kc,001,2025-03-08_17h15.54.625,pleaseworkstroopcontrol,2024.2.4,60.04480543334218,2025-03-08 17h16.09.575847 -0800,
test,consistent,51,red,red,word,m,800,2000,138,20,2,m,1,0.5328737000018009,None,2,20,138,50,706.4658430999989,,,,,,,,,,,,,706.4519875000005,706.4658430999989,706.4658430999989,706.6657180000002,706.6657180000002,707.001972099999,m,1,0.5328737000018009,None,4.213040743402733,707.0028023999985,707.015706000002,711.2161612000018,711.2005915000009,,,,kc,001,2025-03-08_17h15.54.625,pleaseworkstroopcontrol,2024.2.4,60.04480543334218,2025-03-08 17h16.09.575847 -0800,
test,inconsistent,29,green,blue,word,z,800,2000,139,21,2,z,1,0.5611552000009397,None,2,21,139,28,711.2161612000018,,,,,,,,,,,,,711.2092961999988,711.2161612000018,711.2161612000018,711.4160740000007,711.4160740000007,711.785474100001,z,1,0.5611552000009397,None,2.991904102622797,711.7862693999996,711.7996946999992,714.7833251000011,714.7687131999992,,,,kc,001,2025-03-08_17h15.54.625,pleaseworkstroopcontrol,2024.2.4,60.04480543334218,2025-03-08 17h16.09.575847 -0800,
test,inconsistent,6,red,yellow,word,z,800,2000,140,22,2,z,1,0.5311703000006673,None,2,22,140,5,714.7833251000011,,,,,,,,,,,,,714.7742713000007,714.7833251000011,714.7833251000011,714.9834644000002,714.9834644000002,715.3185522999993,z,1,0.5311703000006673,None,1.265007538539936,715.319344399999,715.3333988999984,716.5837646,716.5676611000017,,,,kc,001,2025-03-08_17h15.54.625,pleaseworkstroopcontrol,2024.2.4,60.04480543334218,2025-03-08 17h16.09.575847 -0800,
test,consistent,35,red,red,word,m,800,2000,141,23,2,z,0,0.40456069999709143,None,2,23,141,34,716.5837646,,,,,,,,,,,,,716.5691287000009,716.5837646,716.5837646,716.7836153999997,716.7836153999997,717.0021483000019,z,0,0.40456069999709143,None,3.011723257234517,717.0029141000014,717.016779900001,720.0171617999986,720.0017152,,,,kc,001,2025-03-08_17h15.54.625,pleaseworkstroopcontrol,2024.2.4,60.04480543334218,2025-03-08 17h16.09.575847 -0800,
test,inconsistent,19,green,red,word,z,800,2000,142,24,2,m,0,1.7080556000000797,None,2,24,142,18,720.0171617999986,,,,,,,,,,,,,720.0075451000012,720.0171617999986,720.0171617999986,720.2170536000012,720.2170536000012,721.7363891999994,m,0,1.7080556000000797,None,3.0881268904641375,721.737069499999,721.7507175999999,724.8343427,724.8187585999985,,,,kc,001,2025-03-08_17h15.54.625,pleaseworkstroopcontrol,2024.2.4,60.04480543334218,2025-03-08 17h16.09.575847 -0800,
test,consistent,36,red,red,word,m,800,2000,143,25,2,m,1,0.6289324999997916,None,2,25,143,35,724.8343427,,,,,,,,,,,,,724.8246663999998,724.8343427,724.8343427,725.0343371999988,725.0343371999988,725.4697894000019,m,1,0.6289324999997916,None,4.960143734516206,725.4706393000015,725.4845022000009,730.4350742999995,730.4191998999995,,,,kc,001,2025-03-08_17h15.54.625,pleaseworkstroopcontrol,2024.2.4,60.04480543334218,2025-03-08 17h16.09.575847 -0800,
test,inconsistent,21,black,yellow,word,z,800,2000,144,26,2,z,1,0.5801170999984606,None,2,26,144,20,730.4350742999995,,,,,,,,,,,,,730.4266720000014,730.4350742999995,730.4350742999995,730.6352253000005,730.6352253000005,731.0201570999998,z,1,0.5801170999984606,None,5.174507052906782,731.0209615999993,731.0350446000011,736.2021248000019,736.1865297000004,,,,kc,001,2025-03-08_17h15.54.625,pleaseworkstroopcontrol,2024.2.4,60.04480543334218,2025-03-08 17h16.09.575847 -0800,
test,consistent,40,yellow,yellow,word,m,800,2000,145,27,2,z,0,0.6184736999966844,None,2,27,145,39,736.2021248000019,,,,,,,,,,,,,736.1927527000007,736.2021248000019,736.2021248000019,736.4022463000001,736.4022463000001,736.8375317999999,z,0,0.6184736999966844,None,3.92020860302269,736.8383042999994,736.8523372000018,740.7691491000005,740.7536560000008,,,,kc,001,2025-03-08_17h15.54.625,pleaseworkstroopcontrol,2024.2.4,60.04480543334218,2025-03-08 17h16.09.575847 -0800,
test,inconsistent,16,red,green,word,z,800,2000,146,28,2,z,1,0.7499811999987287,None,2,28,146,15,740.7691491000005,,,,,,,,,,,,,740.7581161000016,740.7691491000005,740.7691491000005,740.9692088000011,740.9692088000011,741.5216280999994,z,1,0.7499811999987287,None,1.6577829730684632,741.5224325999989,741.5360476999995,743.1861768999988,743.1704476000014,,,,kc,001,2025-03-08_17h15.54.625,pleaseworkstroopcontrol,2024.2.4,60.04480543334218,2025-03-08 17h16.09.575847 -0800,
test,consistent,45,red,red,word,m,800,2000,147,29,2,m,1,0.5689731999991636,None,2,29,147,44,743.1861768999988,,,,,,,,,,,,,743.1719488999988,743.1861768999988,743.1861768999988,743.386194499999,743.386194499999,743.7715156999984,m,1,0.5689731999991636,None,2.76017122068999,743.7723603000013,743.7861932000014,746.5364565999989,746.5205655999998,,,,kc,001,2025-03-08_17h15.54.625,pleaseworkstroopcontrol,2024.2.4,60.04480543334218,2025-03-08 17h16.09.575847 -0800,
test,inconsistent,27,green,red,word,z,800,2000,148,30,2,z,1,0.5790601999979117,None,2,30,148,26,746.5364565999989,,,,,,,,,,,,,746.5280468000019,746.5364565999989,746.5364565999989,746.7367360999997,746.7367360999997,747.1219501999985,z,1,0.5790601999979117,None,2.402371270350926,747.1228996999998,747.1364141999984,749.5368626999989,749.5214917000012,,,,kc,001,2025-03-08_17h15.54.625,pleaseworkstroopcontrol,2024.2.4,60.04480543334218,2025-03-08 17h16.09.575847 -0800,
test,consistent,38,blue,blue,word,m,800,2000,149,31,2,m,1,0.6499251000022923,None,2,31,149,37,749.5368626999989,,,,,,,,,,,,,749.5282995999987,749.5368626999989,749.5368626999989,749.7368910000005,749.7368910000005,750.1897150000004,m,1,0.6499251000022923,None,2.9940461313818143,750.1904232999987,750.2036124000006,753.1870053999992,753.1708241999986,,,,kc,001,2025-03-08_17h15.54.625,pleaseworkstroopcontrol,2024.2.4,60.04480543334218,2025-03-08 17h16.09.575847 -0800,
test,consistent,34,green,green,word,m,800,2000,150,32,2,m,1,0.5881477000002633,None,2,32,150,33,753.1870053999992,,,,,,,,,,,,,753.1767584000008,753.1870053999992,753.1870053999992,753.3703228999984,753.3703228999984,753.7891424000009,m,1,0.5881477000002633,None,1.2707493111675663,753.7899087000005,753.8039868000014,755.0704441000016,755.0552839000011,,,,kc,001,2025-03-08_17h15.54.625,pleaseworkstroopcontrol,2024.2.4,60.04480543334218,2025-03-08 17h16.09.575847 -0800,
test,inconsistent,59,yellow,green,word,z,800,2000,151,33,2,z,1,0.622502499998518,None,2,33,151,58,755.0704441000016,,,,,,,,,,,,,755.0617205000017,755.0704441000016,755.0704441000016,755.2705509000007,755.2705509000007,755.7061295999993,z,1,0.622502499998518,None,4.239652335108163,755.7068891000017,755.7205274000007,759.9546444000007,759.9392097999989,,,,kc,001,2025-03-08_17h15.54.625,pleaseworkstroopcontrol,2024.2.4,60.04480543334218,2025-03-08 17h16.09.575847 -0800,
test,consistent,49,yellow,yellow,word,m,800,2000,152,34,2,m,1,0.5981654999995953,None,2,34,152,48,759.9546444000007,,,,,,,,,,,,,759.9413832999999,759.9546444000007,759.9546444000007,760.1548022999996,760.1548022999996,760.5565768000015,m,1,0.5981654999995953,None,2.742418239785427,760.5573900999989,760.5712248999989,763.3047546999987,763.2892510999991,,,,kc,001,2025-03-08_17h15.54.625,pleaseworkstroopcontrol,2024.2.4,60.04480543334218,2025-03-08 17h16.09.575847 -0800,
test,inconsistent,44,green,red,word,z,800,2000,153,35,2,z,1,0.5681837999982235,None,2,35,153,43,763.3047546999987,,,,,,,,,,,,,763.2960098000003,763.3047546999987,763.3047546999987,763.5048046000011,763.5048046000011,763.8901742999988,z,1,0.5681837999982235,None,2.52324082823186,763.891008300001,763.904948899999,766.421503900001,766.406283100001,,,,kc,001,2025-03-08_17h15.54.625,pleaseworkstroopcontrol,2024.2.4,60.04480543334218,2025-03-08 17h16.09.575847 -0800,
test,inconsistent,5,orange,blue,word,z,800,2000,154,36,2,z,1,0.6222355999998399,None,2,36,154,4,766.421503900001,,,,,,,,,,,,,766.4143158000006,766.421503900001,766.421503900001,766.6216929000002,766.6216929000002,767.0573356999994,z,1,0.6222355999998399,None,2.624225316192023,767.0581038000018,767.0717418999993,769.6888524999995,769.6729946000014,,,,kc,001,2025-03-08_17h15.54.625,pleaseworkstroopcontrol,2024.2.4,60.04480543334218,2025-03-08 17h16.09.575847 -0800,
test,inconsistent,26,green,yellow,word,z,800,2000,155,37,2,z,1,0.808227600002283,None,2,37,155,25,769.6888524999995,,,,,,,,,,,,,769.6787484999986,769.6888524999995,769.6888524999995,769.8890116000002,769.8890116000002,770.5078243999997,z,1,0.808227600002283,None,2.9723798413511577,770.5084935999985,770.5220346999995,773.4889318999994,773.4736842999991,,,,kc,001,2025-03-08_17h15.54.625,pleaseworkstroopcontrol,2024.2.4,60.04480543334218,2025-03-08 17h16.09.575847 -0800,
test,consistent,47,blue,blue,word,m,800,2000,156,38,2,m,1,0.5815825999998196,None,2,38,156,46,773.4889318999994,,,,,,,,,,,,,773.4820450000007,773.4889318999994,773.4889318999994,773.6891374000006,773.6891374000006,774.0743204999999,m,1,0.5815825999998196,None,1.1527968025109694,774.0752718000003,774.0893378000001,775.2393254999988,775.2236395,,,,kc,001,2025-03-08_17h15.54.625,pleaseworkstroopcontrol,2024.2.4,60.04480543334218,2025-03-08 17h16.09.575847 -0800,
test,consistent,23,green,green,word,m,800,2000,157,39,2,m,1,0.5941979000017454,None,2,39,157,22,775.2393254999988,,,,,,,,,,,,,775.2297495999992,775.2393254999988,775.2393254999988,775.4393165000001,775.4393165000001,775.8414909999992,m,1,0.5941979000017454,None,3.37725360502997,775.8421860000017,775.8561733999995,779.2228815000017,779.2073917999987,,,,kc,001,2025-03-08_17h15.54.625,pleaseworkstroopcontrol,2024.2.4,60.04480543334218,2025-03-08 17h16.09.575847 -0800,
test,consistent,18,red,red,word,m,800,2000,158,40,2,m,1,0.5919513999979245,None,2,40,158,17,779.2228815000017,,,,,,,,,,,,,779.2141354999985,779.2228815000017,779.2228815000017,779.4229306000016,779.4229306000016,779.8250283999987,m,1,0.5919513999979245,None,2.3605866839168375,779.8257163999988,779.8397571999994,782.1900375000005,782.1744359000004,,,,kc,001,2025-03-08_17h15.54.625,pleaseworkstroopcontrol,2024.2.4,60.04480543334218,2025-03-08 17h16.09.575847 -0800,
test,consistent,28,yellow,yellow,word,m,800,2000,159,41,2,m,1,0.6042746999992232,None,2,41,159,27,782.1900375000005,,,,,,,,,,,,,782.1815754999989,782.1900375000005,782.1900375000005,782.3900730999994,782.3900730999994,782.8088982000008,m,1,0.6042746999992232,None,2.7331925067872556,782.8095915999984,782.8231612000018,785.5569383000002,785.541420900001,,,,kc,001,2025-03-08_17h15.54.625,pleaseworkstroopcontrol,2024.2.4,60.04480543334218,2025-03-08 17h16.09.575847 -0800,
test,inconsistent,14,yellow,blue,word,z,800,2000,160,42,2,z,1,0.7508244000018749,None,2,42,160,13,785.5569383000002,,,,,,,,,,,,,785.542727,785.5569383000002,785.5569383000002,785.7569915999993,785.7569915999993,786.3102101000004,z,1,0.7508244000018749,None,1.0280104578629181,786.3112948000016,786.3237173999987,787.3406009999999,787.3249704000009,,,,kc,001,2025-03-08_17h15.54.625,pleaseworkstroopcontrol,2024.2.4,60.04480543334218,2025-03-08 17h16.09.575847 -0800,
test,inconsistent,33,yellow,green,word,z,800,2000,161,43,2,z,1,0.652047900002799,None,2,43,161,32,787.3406009999999,,,,,,,,,,,,,787.3273133000002,787.3406009999999,787.3406009999999,787.5406504999992,787.5406504999992,788.0088232999988,z,1,0.652047900002799,None,5.292210792053729,788.0093712000016,788.0235902999993,793.3080093999997,793.2922988999999,,,,kc,001,2025-03-08_17h15.54.625,pleaseworkstroopcontrol,2024.2.4,60.04480543334218,2025-03-08 17h16.09.575847 -0800,
test,inconsistent,39,red,yellow,word,z,800,2000,162,44,2,z,1,0.6327658000009251,None,2,44,162,38,793.3080093999997,,,,,,,,,,,,,793.2967844000013,793.3080093999997,793.3080093999997,793.5079532000018,793.5079532000018,793.9436931000018,z,1,0.6327658000009251,None,2.500963335018197,793.9443510000019,793.9579082000018,796.4582751000016,796.4424666000014,,,,kc,001,2025-03-08_17h15.54.625,pleaseworkstroopcontrol,2024.2.4,60.04480543334218,2025-03-08 17h16.09.575847 -0800,
test,inconsistent,53,red,yellow,word,z,800,2000,163,45,2,z,1,0.8362607000017306,None,2,45,163,52,796.4582751000016,,,,,,,,,,,,,796.4437390999992,796.4582751000016,796.4582751000016,796.6581646999985,796.6581646999985,797.3091888000017,z,1,0.8362607000017306,None,1.242301502366495,797.3099254000008,797.3242076999995,798.5584740999984,798.5425294999986,,,,kc,001,2025-03-08_17h15.54.625,pleaseworkstroopcontrol,2024.2.4,60.04480543334218,2025-03-08 17h16.09.575847 -0800,
test,inconsistent,10,green,yellow,word,z,800,2000,164,46,2,z,1,0.9473427000011725,None,2,46,164,9,798.5584740999984,,,,,,,,,,,,,798.5495302000018,798.5584740999984,798.5584740999984,798.7584233999987,798.7584233999987,799.5104541000001,z,1,0.9473427000011725,None,3.813247403834752,799.5111899000003,799.5247801000005,803.3251286000013,803.3097508999999,,,,kc,001,2025-03-08_17h15.54.625,pleaseworkstroopcontrol,2024.2.4,60.04480543334218,2025-03-08 17h16.09.575847 -0800,
test,consistent,54,green,green,word,m,800,2000,165,47,2,m,1,0.7794303999980912,None,2,47,165,53,803.3251286000013,,,,,,,,,,,,,803.3112593000005,803.3251286000013,803.3251286000013,803.5252027999995,803.5252027999995,804.1107506000008,m,1,0.7794303999980912,None,5.88069287617569,804.1114702000013,804.1253772000018,809.9927390000012,809.9770109000019,,,,kc,001,2025-03-08_17h15.54.625,pleaseworkstroopcontrol,2024.2.4,60.04480543334218,2025-03-08 17h16.09.575847 -0800,
test,consistent,12,yellow,yellow,word,m,800,2000,166,48,2,m,1,0.6365793000004487,None,2,48,166,11,809.9927390000012,,,,,,,,,,,,,809.9830791999993,809.9927390000012,809.9927390000012,810.1927326000005,810.1927326000005,810.6452891000008,m,1,0.6365793000004487,None,3.148815493512379,810.6460611000002,810.6595420000012,813.8098151999984,813.7945168000006,,,,kc,001,2025-03-08_17h15.54.625,pleaseworkstroopcontrol,2024.2.4,60.04480543334218,2025-03-08 17h16.09.575847 -0800,
test,consistent,57,yellow,yellow,word,m,800,2000,167,49,2,m,1,0.6214333999996597,None,2,49,167,56,813.8098151999984,,,,,,,,,,,,,813.7958208000018,813.8098151999984,813.8098151999984,814.0098785000009,814.0098785000009,814.4453704000007,m,1,0.6214333999996597,None,3.3065826883390605,814.4461663000002,814.4600366999985,817.7603358999986,817.7446659000016,,,,kc,001,2025-03-08_17h15.54.625,pleaseworkstroopcontrol,2024.2.4,60.04480543334218,2025-03-08 17h16.09.575847 -0800,
test,inconsistent,58,yellow,red,word,z,800,2000,168,50,2,z,1,0.5457157000018924,None,2,50,168,57,817.7603358999986,,,,,,,,,,,,,817.7463898999995,817.7603358999986,817.7603358999986,817.9601927000003,817.9601927000003,818.3112174999987,z,1,0.5457157000018924,None,1.1872918084067439,818.3117386000013,818.3266432000019,819.5104183000003,819.494658399999,,,,kc,001,2025-03-08_17h15.54.625,pleaseworkstroopcontrol,2024.2.4,60.04480543334218,2025-03-08 17h16.09.575847 -0800,
test,inconsistent,13,purple,red,word,z,800,2000,169,51,2,z,1,0.6311462999983632,None,2,51,169,12,819.5104183000003,,,,,,,,,,,,,819.5022214000019,819.5104183000003,819.5104183000003,819.7104280999993,819.7104280999993,820.1458222000001,z,1,0.6311462999983632,None,5.119277154806081,820.146663800002,820.1602902999985,825.2770806000008,825.2622235000017,,,,kc,001,2025-03-08_17h15.54.625,pleaseworkstroopcontrol,2024.2.4,60.04480543334218,2025-03-08 17h16.09.575847 -0800,
test,consistent,7,green,green,word,m,800,2000,170,52,2,m,1,0.6248883000007481,None,2,52,170,6,825.2770806000008,,,,,,,,,,,,,825.2689022000013,825.2770806000008,825.2770806000008,825.4773238000016,825.4773238000016,825.9129192,m,1,0.6248883000007481,None,1.4168213796354425,825.9141244999992,825.9272151000005,827.3446460999985,827.3289972999992,,,,kc,001,2025-03-08_17h15.54.625,pleaseworkstroopcontrol,2024.2.4,60.04480543334218,2025-03-08 17h16.09.575847 -0800,
test,inconsistent,56,green,red,word,z,800,2000,171,53,2,z,1,0.5565279000002192,None,2,53,171,55,827.3446460999985,,,,,,,,,,,,,827.3306101999988,827.3446460999985,827.3446460999985,827.544541700001,827.544541700001,827.9135827999999,z,1,0.5565279000002192,None,4.5724113560198845,827.9142648999987,827.9275010999991,832.4946845000013,832.4785689000018,,,,kc,001,2025-03-08_17h15.54.625,pleaseworkstroopcontrol,2024.2.4,60.04480543334218,2025-03-08 17h16.09.575847 -0800,
test,inconsistent,48,yellow,red,word,z,800,2000,172,54,2,z,1,0.5190140999984578,None,2,54,172,47,832.4946845000013,,,,,,,,,,,,,832.4845859999987,832.4946845000013,832.4946845000013,832.6782411999993,832.6782411999993,833.0302550999986,z,1,0.5190140999984578,None,3.8295166186449636,833.0310095999994,833.0449654000004,836.8621007000002,836.8466159999989,,,,kc,001,2025-03-08_17h15.54.625,pleaseworkstroopcontrol,2024.2.4,60.04480543334218,2025-03-08 17h16.09.575847 -0800,
test,inconsistent,22,red,yellow,word,z,800,2000,173,55,2,z,1,0.78287569999884,None,2,55,173,21,836.8621007000002,,,,,,,,,,,,,836.8523080999985,836.8621007000002,836.8621007000002,837.0621529000018,837.0621529000018,837.6481802000017,z,1,0.78287569999884,None,1.4168410030612424,837.6488653000015,837.6621393999994,839.078521200001,839.0633067000017,,,,kc,001,2025-03-08_17h15.54.625,pleaseworkstroopcontrol,2024.2.4,60.04480543334218,2025-03-08 17h16.09.575847 -0800,
test,inconsistent,30,blue,red,word,z,800,2000,174,56,2,z,1,0.5665680999991309,None,2,56,174,29,839.078521200001,,,,,,,,,,,,,839.0691135999987,839.078521200001,839.078521200001,839.2787571000008,839.2787571000008,839.6479325,z,1,0.5665680999991309,None,3.855570056895284,839.6485862000009,839.6622019999995,843.5127152999994,843.4972057999985,,,,kc,001,2025-03-08_17h15.54.625,pleaseworkstroopcontrol,2024.2.4,60.04480543334218,2025-03-08 17h16.09.575847 -0800,
test,inconsistent,3,blue,red,word,z,800,2000,175,57,2,z,1,0.5741474999995262,None,2,57,175,2,843.5127152999994,,,,,,,,,,,,,843.4986224999993,843.5127152999994,843.5127152999994,843.7127561999987,843.7127561999987,844.0984293000001,z,1,0.5741474999995262,None,5.735149707567943,844.0990775999999,844.1127320000014,849.8463186000008,849.8302977999992,,,,kc,001,2025-03-08_17h15.54.625,pleaseworkstroopcontrol,2024.2.4,60.04480543334218,2025-03-08 17h16.09.575847 -0800,
test,consistent,43,green,green,word,m,800,2000,176,58,2,m,1,0.6746749000012642,None,2,58,176,42,849.8463186000008,,,,,,,,,,,,,849.8361888,849.8463186000008,849.8463186000008,850.0464534999992,850.0464534999992,850.5319853000001,m,1,0.6746749000012642,None,3.1862762358710084,850.5327174000013,850.5466245999996,853.7302808999993,853.7147482,,,,kc,001,2025-03-08_17h15.54.625,pleaseworkstroopcontrol,2024.2.4,60.04480543334218,2025-03-08 17h16.09.575847 -0800,
test,inconsistent,52,red,green,word,z,800,2000,177,0,3,z,1,0.5587287999987893,None,3,0,177,51,853.7302808999993,,,,,,,,,,,,,853.7207789999993,853.7302808999993,853.7302808999993,853.9302032000014,853.9302032000014,854.2992666999999,z,1,0.5587287999987893,None,1.6002094460147238,854.3000993999995,854.3137382999994,855.9142826999996,855.8987374999997,,,,kc,001,2025-03-08_17h15.54.625,pleaseworkstroopcontrol,2024.2.4,60.04480543334218,2025-03-08 17h16.09.575847 -0800,
test,inconsistent,15,yellow,red,word,z,800,2000,178,1,3,z,1,0.5987683999992441,None,3,1,178,14,855.9142826999996,,,,,,,,,,,,,855.9049889999987,855.9142826999996,855.9142826999996,856.1139261999997,856.1139261999997,856.5161202999989,z,1,0.5987683999992441,None,1.281992305733922,856.5168641000018,856.5305230000013,857.8139025000019,857.7987775000001,,,,kc,001,2025-03-08_17h15.54.625,pleaseworkstroopcontrol,2024.2.4,60.04480543334218,2025-03-08 17h16.09.575847 -0800,
test,inconsistent,26,green,yellow,word,z,800,2000,179,2,3,z,1,0.4964609000016935,None,3,2,179,25,857.8139025000019,,,,,,,,,,,,,857.8066839999992,857.8139025000019,857.8139025000019,858.0142479999995,858.0142479999995,858.316477299999,z,1,0.4964609000016935,None,4.553361603995224,858.317257499999,858.3307208000006,862.8811219000017,862.8659014000004,,,,kc,001,2025-03-08_17h15.54.625,pleaseworkstroopcontrol,2024.2.4,60.04480543334218,2025-03-08 17h16.09.575847 -0800,
test,inconsistent,29,green,blue,word,z,800,2000,180,3,3,z,1,0.571317400001135,None,3,3,180,28,862.8811219000017,,,,,,,,,,,,,862.8674294000011,862.8811219000017,862.8811219000017,863.0809324000002,863.0809324000002,863.4669563999996,z,1,0.571317400001135,None,2.628965870681322,863.4676350000009,863.4811766999992,866.0983746999991,866.0825554000003,,,,kc,001,2025-03-08_17h15.54.625,pleaseworkstroopcontrol,2024.2.4,60.04480543334218,2025-03-08 17h16.09.575847 -0800,
test,consistent,45,red,red,word,m,800,2000,181,4,3,m,1,0.5900198000017554,None,3,4,181,44,866.0983746999991,,,,,,,,,,,,,866.0882477999985,866.0983746999991,866.0983746999991,866.2983113000009,866.2983113000009,866.7006604999988,m,1,0.5900198000017554,None,3.0358170154611885,866.7015682000019,866.7151039000018,869.7486884999998,869.732775299999,,,,kc,001,2025-03-08_17h15.54.625,pleaseworkstroopcontrol,2024.2.4,60.04480543334218,2025-03-08 17h16.09.575847 -0800,
test,inconsistent,20,red,green,word,z,800,2000,182,5,3,z,1,0.5623956999988877,None,3,5,182,19,869.7486884999998,,,,,,,,,,,,,869.7341371000002,869.7486884999998,869.7486884999998,869.9486012000016,869.9486012000016,870.3177032999993,z,1,0.5623956999988877,None,2.8711544435950636,870.3185219000006,870.331917800002,873.1990057000003,873.1831230999996,,,,kc,001,2025-03-08_17h15.54.625,pleaseworkstroopcontrol,2024.2.4,60.04480543334218,2025-03-08 17h16.09.575847 -0800,
test,consistent,18,red,red,word,m,800,2000,183,6,3,m,1,0.5178699999996752,None,3,6,183,17,873.1990057000003,,,,,,,,,,,,,873.1844750000018,873.1990057000003,873.1990057000003,873.3991080000014,873.3991080000014,873.7340465000016,m,1,0.5178699999996752,None,5.175029150727138,873.7347426999986,873.749136800001,878.9159699000011,878.8997443000007,,,,kc,001,2025-03-08_17h15.54.625,pleaseworkstroopcontrol,2024.2.4,60.04480543334218,2025-03-08 17h16.09.575847 -0800,
test,consistent,40,yellow,yellow,word,m,800,2000,184,7,3,m,1,0.6479428000020562,None,3,7,184,39,878.9159699000011,,,,,,,,,,,,,878.9055743999998,878.9159699000011,878.9159699000011,879.0994222000008,879.0994222000008,879.5684169999986,m,1,0.6479428000020562,None,5.301913209806125,879.5691960000004,879.5827355000001,884.8829148000004,884.8673148000016,,,,kc,001,2025-03-08_17h15.54.625,pleaseworkstroopcontrol,2024.2.4,60.04480543334218,2025-03-08 17h16.09.575847 -0800,
test,inconsistent,10,green,yellow,word,z,800,2000,185,8,3,z,1,0.8670056000009936,None,3,8,185,9,884.8829148000004,,,,,,,,,,,,,884.8727586999994,884.8829148000004,884.8829148000004,885.0833328000008,885.0833328000008,885.7524305000006,z,1,0.8670056000009936,None,2.379329771879589,885.7533662999995,885.7668928999992,888.1336101000015,888.1181547000015,,,,kc,001,2025-03-08_17h15.54.625,pleaseworkstroopcontrol,2024.2.4,60.04480543334218,2025-03-08 17h16.09.575847 -0800,
test,inconsistent,5,orange,blue,word,z,800,2000,186,9,3,z,1,0.5166691999984323,None,3,9,186,4,888.1336101000015,,,,,,,,,,,,,888.1255344000019,888.1336101000015,888.1336101000015,888.3336258000018,888.3336258000018,888.6531670000004,z,1,0.5166691999984323,None,3.578075775097215,888.6538919000013,888.6670349999986,892.2340034000008,892.2185978999987,,,,kc,001,2025-03-08_17h15.54.625,pleaseworkstroopcontrol,2024.2.4,60.04480543334218,2025-03-08 17h16.09.575847 -0800,
test,inconsistent,33,yellow,green,word,z,800,2000,187,10,3,z,1,0.4999078000000736,None,3,10,187,32,892.2340034000008,,,,,,,,,,,,,892.2247515000017,892.2340034000008,892.2340034000008,892.4340058999987,892.4340058999987,892.7366140000013,z,1,0.4999078000000736,None,3.386531745578772,892.7373590999996,892.750837399999,896.1343248000012,896.1187656000002,,,,kc,001,2025-03-08_17h15.54.625,pleaseworkstroopcontrol,2024.2.4,60.04480543334218,2025-03-08 17h16.09.575847 -0800,
test,inconsistent,9,red,blue,word,z,800,2000,188,11,3,z,1,0.5174452000028396,None,3,11,188,8,896.1343248000012,,,,,,,,,,,,,896.1250512000006,896.1343248000012,896.1343248000012,896.3342737999992,896.3342737999992,896.6540220999996,z,1,0.5174452000028396,None,5.551261710560847,896.6547744999989,896.6678978000018,902.2183556999989,902.2031772000009,,,,kc,001,2025-03-08_17h15.54.625,pleaseworkstroopcontrol,2024.2.4,60.04480543334218,2025-03-08 17h16.09.575847 -0800,
test,inconsistent,11,green,red,word,z,800,2000,189,12,3,m,0,0.5907090000000608,None,3,12,189,10,902.2183556999989,,,,,,,,,,,,,902.2110873999991,902.2183556999989,902.2183556999989,902.4182204999997,902.4182204999997,902.820424900001,m,0,0.5907090000000608,None,4.583691055004882,902.821205100001,902.8349783000012,907.4189842999986,907.4036789999991,,,,kc,001,2025-03-08_17h15.54.625,pleaseworkstroopcontrol,2024.2.4,60.04480543334218,2025-03-08 17h16.09.575847 -0800,
test,inconsistent,22,red,yellow,word,z,800,2000,190,13,3,z,1,0.7470327999981237,None,3,13,190,21,907.4189842999986,,,,,,,,,,,,,907.4101358000007,907.4189842999986,907.4189842999986,907.619088200001,907.619088200001,908.1711156000019,z,1,0.7470327999981237,None,3.074505196840244,908.1718424999999,908.1855641000002,911.2524885999992,911.2363986000018,,,,kc,001,2025-03-08_17h15.54.625,pleaseworkstroopcontrol,2024.2.4,60.04480543334218,2025-03-08 17h16.09.575847 -0800,
test,inconsistent,59,yellow,green,word,z,800,2000,191,14,3,z,1,0.5281725999993796,None,3,14,191,58,911.2524885999992,,,,,,,,,,,,,911.2422293999989,911.2524885999992,911.2524885999992,911.4357716000013,911.4357716000013,911.7877388000015,z,1,0.5281725999993796,None,3.542043340632787,911.7884908000015,911.8026929000007,915.3361968999998,915.3210916999997,,,,kc,001,2025-03-08_17h15.54.625,pleaseworkstroopcontrol,2024.2.4,60.04480543334218,2025-03-08 17h16.09.575847 -0800,
test,inconsistent,44,green,red,word,z,800,2000,192,15,3,z,1,0.5113473999990674,None,3,15,192,43,915.3361968999998,,,,,,,,,,,,,915.3272953999985,915.3361968999998,915.3361968999998,915.5362671000003,915.5362671000003,915.8555291000011,z,1,0.5113473999990674,None,4.99613151097277,915.8562826000016,915.8699335000019,920.8559428000008,920.838053200001,,,,kc,001,2025-03-08_17h15.54.625,pleaseworkstroopcontrol,2024.2.4,60.04480543334218,2025-03-08 17h16.09.575847 -0800,
test,inconsistent,32,orange,green,word,z,800,2000,193,16,3,z,1,0.5055348999994749,None,3,16,193,31,920.8559428000008,,,,,,,,,,,,,920.8481093000009,920.8559428000008,920.8559428000008,921.0539659999995,921.0539659999995,921.3726663999987,z,1,0.5055348999994749,None,1.726712069460587,921.3734218999998,921.3869742999996,923.1038612000011,923.0879926000016,,,,kc,001,2025-03-08_17h15.54.625,pleaseworkstroopcontrol,2024.2.4,60.04480543334218,2025-03-08 17h16.09.575847 -0800,
test,consistent,7,green,green,word,m,800,2000,194,17,3,z,0,0.5810672999978124,None,3,17,194,6,923.1038612000011,,,,,,,,,,,,,923.0940100000007,923.1038612000011,923.1038612000011,923.3038487000013,923.3038487000013,923.6892235999985,z,0,0.5810672999978124,None,2.6544384369950444,923.6900597999993,923.7038587999996,926.3540877999985,926.3387452999996,,,,kc,001,2025-03-08_17h15.54.625,pleaseworkstroopcontrol,2024.2.4,60.04480543334218,2025-03-08 17h16.09.575847 -0800,
test,inconsistent,24,blue,green,word,z,800,2000,195,18,3,z,1,0.601244500001485,None,3,18,195,23,926.3540877999985,,,,,,,,,,,,,926.344780200001,926.3540877999985,926.3540877999985,926.554161600001,926.554161600001,926.9725550000003,z,1,0.601244500001485,None,1.6912559524345008,926.9732183000015,926.9874640000016,928.6709706000001,928.655537900002,,,,kc,001,2025-03-08_17h15.54.625,pleaseworkstroopcontrol,2024.2.4,60.04480543334218,2025-03-08 17h16.09.575847 -0800,
test,inconsistent,3,blue,red,word,z,800,2000,196,19,3,z,1,0.7637039000001096,None,3,19,196,2,928.6709706000001,,,,,,,,,,,,,928.6571322999989,928.6709706000001,928.6709706000001,928.871016000001,928.871016000001,929.4396487999984,z,1,0.7637039000001096,None,1.2986779015902163,929.4405705999998,929.4544956999998,930.7547639000004,930.7388350000001,,,,kc,001,2025-03-08_17h15.54.625,pleaseworkstroopcontrol,2024.2.4,60.04480543334218,2025-03-08 17h16.09.575847 -0800,
test,inconsistent,48,yellow,red,word,z,800,2000,197,20,3,z,1,0.7156847000005655,None,3,20,197,47,930.7547639000004,,,,,,,,,,,,,930.7456224999987,930.7547639000004,930.7547639000004,930.9544778000018,930.9544778000018,931.4735734999995,z,1,0.7156847000005655,None,3.845293482048039,931.4743467000008,931.4878223000014,935.3217741000008,935.3061961999992,,,,kc,001,2025-03-08_17h15.54.625,pleaseworkstroopcontrol,2024.2.4,60.04480543334218,2025-03-08 17h16.09.575847 -0800,
test,inconsistent,58,yellow,red,word,z,800,2000,198,21,3,z,1,0.6689468000004126,None,3,21,198,57,935.3217741000008,,,,,,,,,,,,,935.3075524999986,935.3217741000008,935.3217741000008,935.5217320000011,935.5217320000011,936.0073378000016,z,1,0.6689468000004126,None,1.0198988222861645,936.0082103999994,936.021718,937.0383413000018,937.0229858999992,,,,kc,001,2025-03-08_17h15.54.625,pleaseworkstroopcontrol,2024.2.4,60.04480543334218,2025-03-08 17h16.09.575847 -0800,
test,inconsistent,21,black,yellow,word,z,800,2000,199,22,3,z,1,0.6039879000018118,None,3,22,199,20,937.0383413000018,,,,,,,,,,,,,937.0288408999986,937.0383413000018,937.0383413000018,937.2384366000006,937.2384366000006,937.6570844000016,z,1,0.6039879000018118,None,2.6397713792895594,937.6580127999987,937.6719558000004,940.3055174000001,940.289990199999,,,,kc,001,2025-03-08_17h15.54.625,pleaseworkstroopcontrol,2024.2.4,60.04480543334218,2025-03-08 17h16.09.575847 -0800,
test,inconsistent,16,red,green,word,z,800,2000,200,23,3,z,1,0.6663593999983277,None,3,23,200,15,940.3055174000001,,,,,,,,,,,,,940.2952777999999,940.3055174000001,940.3055174000001,940.5055518000008,940.5055518000008,940.9751012999986,z,1,0.6663593999983277,None,3.986809578344953,940.9758814999986,940.9887713999997,944.972873499999,944.9574099999991,,,,kc,001,2025-03-08_17h15.54.625,pleaseworkstroopcontrol,2024.2.4,60.04480543334218,2025-03-08 17h16.09.575847 -0800,
test,consistent,54,green,green,word,m,800,2000,201,24,3,m,1,0.6860779999988154,None,3,24,201,53,944.972873499999,,,,,,,,,,,,,944.9639193000003,944.972873499999,944.972873499999,945.1727675000002,945.1727675000002,945.6749845000013,m,1,0.6860779999988154,None,1.276590595800662,945.6759878000012,945.6892262000001,946.9563334000013,946.9404423999986,,,,kc,001,2025-03-08_17h15.54.625,pleaseworkstroopcontrol,2024.2.4,60.04480543334218,2025-03-08 17h16.09.575847 -0800,
test,inconsistent,55,green,yellow,word,z,800,2000,202,25,3,z,1,0.5740775000012945,None,3,25,202,54,946.9563334000013,,,,,,,,,,,,,946.941808399999,946.9563334000013,946.9563334000013,947.156229799999,947.156229799999,947.5417261000002,z,1,0.5740775000012945,None,2.395083729265205,947.5426669000008,947.5562296999997,949.9397116,949.924429900002,,,,kc,001,2025-03-08_17h15.54.625,pleaseworkstroopcontrol,2024.2.4,60.04480543334218,2025-03-08 17h16.09.575847 -0800,
test,inconsistent,19,green,red,word,z,800,2000,203,26,3,z,1,0.6518858999988879,None,3,26,203,18,949.9397116,,,,,,,,,,,,,949.925987999999,949.9397116,949.9397116,950.1395254999989,950.1395254999989,950.6089180000017,z,1,0.6518858999988879,None,3.9379406792959823,950.6096350000007,950.6232831999987,954.557054500001,954.5412256000018,,,,kc,001,2025-03-08_17h15.54.625,pleaseworkstroopcontrol,2024.2.4,60.04480543334218,2025-03-08 17h16.09.575847 -0800,
test,inconsistent,50,yellow,green,word,z,800,2000,204,27,3,z,1,0.6303382000005513,None,3,27,204,49,954.557054500001,,,,,,,,,,,,,954.5478542000019,954.557054500001,954.557054500001,954.7569882999996,954.7569882999996,955.1921363000001,z,1,0.6303382000005513,None,2.968683652619661,955.1928804999989,955.2070802000017,958.1741848999991,958.1584870000006,,,,kc,001,2025-03-08_17h15.54.625,pleaseworkstroopcontrol,2024.2.4,60.04480543334218,2025-03-08 17h16.09.575847 -0800,
test,consistent,1,red,red,word,m,800,2000,205,28,3,m,1,0.5775646000001871,None,3,28,205,0,958.1741848999991,,,,,,,,,,,,,958.1634646999992,958.1741848999991,958.1741848999991,958.3742361000004,958.3742361000004,958.7594957000001,m,1,0.5775646000001871,None,1.8074209824736993,958.7602091000008,958.7741580000002,960.5742991000006,960.558675799999,,,,kc,001,2025-03-08_17h15.54.625,pleaseworkstroopcontrol,2024.2.4,60.04480543334218,2025-03-08 17h16.09.575847 -0800,
test,inconsistent,13,purple,red,word,z,800,2000,206,29,3,z,1,0.5141331000013452,None,3,29,206,12,960.5742991000006,,,,,,,,,,,,,960.5653961999997,960.5742991000006,960.5742991000006,960.7741917999992,960.7741917999992,961.0928176999987,z,1,0.5141331000013452,None,1.048991753188411,961.0937991999999,961.1077077000009,962.1577566999986,962.1420580000013,,,,kc,001,2025-03-08_17h15.54.625,pleaseworkstroopcontrol,2024.2.4,60.04480543334218,2025-03-08 17h16.09.575847 -0800,
test,consistent,28,yellow,yellow,word,m,800,2000,207,30,3,m,1,0.7484384000017599,None,3,30,207,27,962.1577566999986,,,,,,,,,,,,,962.1489892999998,962.1577566999986,962.1577566999986,962.3578134000018,962.3578134000018,962.9102673000016,m,1,0.7484384000017599,None,3.8855215939083916,962.9109795000004,962.9244547000017,966.8082154000003,966.7923574000015,,,,kc,001,2025-03-08_17h15.54.625,pleaseworkstroopcontrol,2024.2.4,60.04480543334218,2025-03-08 17h16.09.575847 -0800,
test,consistent,38,blue,blue,word,m,800,2000,208,31,3,m,1,0.6902523999997356,None,3,31,208,37,966.8082154000003,,,,,,,,,,,,,966.7997878999995,966.8082154000003,966.8082154000003,967.008413399999,967.008413399999,967.5104968000014,m,1,0.6902523999997356,None,3.956160883494282,967.5112694999989,967.5249555000009,971.4754171999994,971.4596908999993,,,,kc,001,2025-03-08_17h15.54.625,pleaseworkstroopcontrol,2024.2.4,60.04480543334218,2025-03-08 17h16.09.575847 -0800,
