type,condition1,trialNo,stim1,textColor,stimFormat,key,ITI,presTime,thisN,thisTrialN,thisRepN,press.keys,press.corr,press.rt,press.duration,stroop.thisRepN,stroop.thisTrialN,stroop.thisN,stroop.thisIndex,thisRow.t,notes,welcome.started,press_space.started,text_welcome.started,welcome.stopped,press_space.keys,fixation_control.started,dot_control.started,dot_control.stopped,fixation_control.stopped,trial.started,press.started,text_stroop.started,dot.started,text_stroop.stopped,dot.stopped,trial.stopped,stroop.press.keys,stroop.press.corr,time_fixation,fixation.started,dot_fixation.started,dot_fixation.stopped,fixation.stopped,stroop.press.rt,stroop.press.duration,thanks.started,thank_you.started,participant,session,date,expName,psychopyVersion,frameRate,expStart,
,,,,,,,,,,,,,,,,,,,,,,0.0024523999891243875,0.006974599993554875,0.006974599993554875,29.998748499987414,None,,,,,,,,,,,,,,,,,,,,,,,Shuai,001,2025-03-10_20h25.50.700,pleaseworkstroopcontrol,2024.2.4,59.99192508476104,2025-03-10 20h26.08.283831 -0700,
,,,,,,,,,,,,,,,,,,,,,,,,,,,29.999550799984718,30.01288189998013,90.10720369999763,89.98663400000078,,,,,,,,,,,,,,,,,,,Shuai,001,2025-03-10_20h25.50.700,pleaseworkstroopcontrol,2024.2.4,59.99192508476104,2025-03-10 20h26.08.283831 -0700,
test,inconsistent,25,red,blue,word,z,800,2000,0,0,0,None,0,,,0,0,0,24,90.10720369999763,,,,,,,,,,,90.10362079998595,90.10720369999763,90.10720369999763,90.20204599999124,90.20204599999124,95.00347239998518,94.98818819998996,None,0,2.0899861357221847,94.9974543999997,95.00347239998518,97.08606269999291,97.07038189997547,,,,,Shuai,001,2025-03-10_20h25.50.700,pleaseworkstroopcontrol,2024.2.4,59.99192508476104,2025-03-10 20h26.08.283831 -0700,
test,inconsistent,6,red,yellow,word,z,800,2000,1,1,0,m,0,1.5331871999951545,None,0,1,1,5,97.08606269999291,,,,,,,,,,,97.07178519997979,97.08606269999291,97.08606269999291,97.28633199998876,97.28633199998876,,98.64261219999753,m,0,4.130803882474332,98.64350869998452,98.6482224999927,102.79163619998144,102.77124949998688,1.5331871999951545,None,,,Shuai,001,2025-03-10_20h25.50.700,pleaseworkstroopcontrol,2024.2.4,59.99192508476104,2025-03-10 20h26.08.283831 -0700,
test,consistent,54,green,green,word,m,800,2000,2,2,0,m,1,0.7212780999834649,None,0,2,2,53,102.79163619998144,,,,,,,,,,,102.78579799999716,102.79163619998144,102.79163619998144,102.98670039998251,102.98670039998251,,103.52206189997378,m,1,1.60948322186503,103.5227968999825,103.5369504999835,105.13878109998768,105.12119989999337,0.7212780999834649,None,,,Shuai,001,2025-03-10_20h25.50.700,pleaseworkstroopcontrol,2024.2.4,59.99192508476104,2025-03-10 20h26.08.283831 -0700,
test,inconsistent,32,orange,green,word,z,800,2000,3,3,0,z,1,0.6911677000171039,None,0,3,3,31,105.13878109998768,,,,,,,,,,,105.13242029998219,105.13878109998768,105.13878109998768,105.3370556999871,105.3370556999871,,105.83903199998895,z,1,5.056884902742111,105.839745699981,105.85367859998951,110.9042771999957,110.88864639998064,0.6911677000171039,None,,,Shuai,001,2025-03-10_20h25.50.700,pleaseworkstroopcontrol,2024.2.4,59.99192508476104,2025-03-10 20h26.08.283831 -0700,
test,inconsistent,44,green,red,word,z,800,2000,4,4,0,z,1,0.8037477000034414,None,0,4,4,43,110.9042771999957,,,,,,,,,,,110.89439989998937,110.9042771999957,110.9042771999957,111.10424759998568,111.10424759998568,,111.72262899999623,z,1,2.512066126386185,111.7233446999744,111.73756059998414,114.24322789997677,114.2220347999828,0.8037477000034414,None,,,Shuai,001,2025-03-10_20h25.50.700,pleaseworkstroopcontrol,2024.2.4,59.99192508476104,2025-03-10 20h26.08.283831 -0700,
test,inconsistent,15,yellow,red,word,z,800,2000,5,5,0,z,1,0.6193998000235297,None,0,5,5,14,114.24322789997677,,,,,,,,,,,114.23683270000038,114.24322789997677,114.24322789997677,114.43779469997389,114.43779469997389,,114.87298059999011,z,1,1.0816227517795376,114.87383529997896,114.88772949998383,115.96135779999895,115.939206799987,0.6193998000235297,None,,,Shuai,001,2025-03-10_20h25.50.700,pleaseworkstroopcontrol,2024.2.4,59.99192508476104,2025-03-10 20h26.08.283831 -0700,
test,inconsistent,24,blue,green,word,z,800,2000,6,6,0,z,1,0.6022833000170067,None,0,6,6,23,115.96135779999895,,,,,,,,,,,115.95473579998361,115.96135779999895,115.96135779999895,116.15468119998695,116.15468119998695,,116.5733294999809,z,1,2.3061211326102162,116.57423149998067,116.58798079998815,118.888189099991,118.87253559997771,0.6022833000170067,None,,,Shuai,001,2025-03-10_20h25.50.700,pleaseworkstroopcontrol,2024.2.4,59.99192508476104,2025-03-10 20h26.08.283831 -0700,
test,inconsistent,31,yellow,red,word,z,800,2000,7,7,0,z,1,0.5623621999984607,None,0,7,7,30,118.888189099991,,,,,,,,,,,118.88100899997517,118.888189099991,118.888189099991,119.08816129999468,119.08816129999468,,119.4571649999998,z,1,1.947937475971714,119.45810879999772,119.4713594999921,121.40533059998415,121.38966659997823,0.5623621999984607,None,,,Shuai,001,2025-03-10_20h25.50.700,pleaseworkstroopcontrol,2024.2.4,59.99192508476104,2025-03-10 20h26.08.283831 -0700,
test,inconsistent,10,green,yellow,word,z,800,2000,8,8,0,z,1,0.5523012999910861,None,0,8,8,9,121.40533059998415,,,,,,,,,,,121.39681519998703,121.40533059998415,121.40533059998415,121.60512100000051,121.60512100000051,,121.97365869997884,z,1,3.1107283215375103,121.97456659999443,121.98867859999882,125.08902009998565,125.0734800999926,0.5523012999910861,None,,,Shuai,001,2025-03-10_20h25.50.700,pleaseworkstroopcontrol,2024.2.4,59.99192508476104,2025-03-10 20h26.08.283831 -0700,
test,consistent,49,yellow,yellow,word,m,800,2000,9,9,0,m,1,0.8721319999895059,None,0,9,9,48,125.08902009998565,,,,,,,,,,,125.08117619997938,125.08902009998565,125.08902009998565,125.28905979997944,125.28905979997944,,125.97418959997594,m,1,2.426879846808329,125.97494429998915,125.98894209999708,128.40591409997432,128.39044589997502,0.8721319999895059,None,,,Shuai,001,2025-03-10_20h25.50.700,pleaseworkstroopcontrol,2024.2.4,59.99192508476104,2025-03-10 20h26.08.283831 -0700,
test,inconsistent,11,green,red,word,z,800,2000,10,10,0,z,1,0.5812613999878522,None,0,10,10,10,128.40591409997432,,,,,,,,,,,128.39744459997746,128.40591409997432,128.40591409997432,128.60601269998006,128.60601269998006,,128.9913608999923,z,1,3.8797752966857915,128.99209389998578,129.0061499000003,132.87266919997637,132.85736769999494,0.5812613999878522,None,,,Shuai,001,2025-03-10_20h25.50.700,pleaseworkstroopcontrol,2024.2.4,59.99192508476104,2025-03-10 20h26.08.283831 -0700,
test,inconsistent,20,red,green,word,z,800,2000,11,11,0,z,1,0.6836661999986973,None,0,11,11,19,132.87266919997637,,,,,,,,,,,132.86408109997865,132.87266919997637,132.87266919997637,133.07277859997703,133.07277859997703,,133.55926969999564,z,1,5.352180163884119,133.55999789998168,133.57289169999422,138.92354930000147,138.90788119999343,0.6836661999986973,None,,,Shuai,001,2025-03-10_20h25.50.700,pleaseworkstroopcontrol,2024.2.4,59.99192508476104,2025-03-10 20h26.08.283831 -0700,
test,consistent,57,yellow,yellow,word,m,800,2000,12,12,0,m,1,0.8552763999905437,None,0,12,12,56,138.92354930000147,,,,,,,,,,,138.9137343999755,138.92354930000147,138.92354930000147,139.12338589999126,139.12338589999126,,139.79251529998146,m,1,2.143709195373498,139.79343589997734,139.8068620999984,141.94072199999937,141.92489779999596,0.8552763999905437,None,,,Shuai,001,2025-03-10_20h25.50.700,pleaseworkstroopcontrol,2024.2.4,59.99192508476104,2025-03-10 20h26.08.283831 -0700,
test,inconsistent,48,yellow,red,word,z,800,2000,13,13,0,z,1,0.6404554000182543,None,0,13,13,47,141.94072199999937,,,,,,,,,,,141.9268450999807,141.94072199999937,141.94072199999937,142.14063399998122,142.14063399998122,,142.59246369998436,z,1,3.3222673705042634,142.5932671999908,142.6071524999861,145.92413129998022,145.90884559997357,0.6404554000182543,None,,,Shuai,001,2025-03-10_20h25.50.700,pleaseworkstroopcontrol,2024.2.4,59.99192508476104,2025-03-10 20h26.08.283831 -0700,
test,consistent,12,yellow,yellow,word,m,800,2000,14,14,0,m,1,0.6891708000039216,None,0,14,14,11,145.92413129998022,,,,,,,,,,,145.91050790000008,145.92413129998022,145.92413129998022,146.12408939999295,146.12408939999295,,146.62616779998643,m,1,2.4739185463546542,146.62706479997723,146.64086210000096,149.107812000002,149.0925292999891,0.6891708000039216,None,,,Shuai,001,2025-03-10_20h25.50.700,pleaseworkstroopcontrol,2024.2.4,59.99192508476104,2025-03-10 20h26.08.283831 -0700,
test,inconsistent,5,orange,blue,word,z,800,2000,15,15,0,z,1,0.6054844000027515,None,0,15,15,4,149.107812000002,,,,,,,,,,,149.09871609997936,149.107812000002,149.107812000002,149.30785669997567,149.30785669997567,,149.72631199998432,z,1,5.538713354202419,149.7271101999795,149.74131859999034,155.27505369999562,155.25953709997702,0.6054844000027515,None,,,Shuai,001,2025-03-10_20h25.50.700,pleaseworkstroopcontrol,2024.2.4,59.99192508476104,2025-03-10 20h26.08.283831 -0700,
test,inconsistent,9,red,blue,word,z,800,2000,16,16,0,z,1,0.8611163999885321,None,0,16,16,8,155.27505369999562,,,,,,,,,,,155.26582259999122,155.27505369999562,155.27505369999562,155.4751122999878,155.4751122999878,,156.14382159998058,z,1,3.1168533494445185,156.1447120999801,156.1585665999737,159.27896319999127,159.26011629999266,0.8611163999885321,None,,,Shuai,001,2025-03-10_20h25.50.700,pleaseworkstroopcontrol,2024.2.4,59.99192508476104,2025-03-10 20h26.08.283831 -0700,
test,inconsistent,21,black,yellow,word,z,800,2000,17,17,0,z,1,0.6408029000158422,None,0,17,17,20,159.27896319999127,,,,,,,,,,,159.27274989997386,159.27896319999127,159.27896319999127,159.47540019999724,159.47540019999724,,159.9274916999857,z,1,2.1919532943818227,159.9282049999747,159.942323700001,162.12552409997443,162.11039190000156,0.6408029000158422,None,,,Shuai,001,2025-03-10_20h25.50.700,pleaseworkstroopcontrol,2024.2.4,59.99192508476104,2025-03-10 20h26.08.283831 -0700,
test,inconsistent,59,yellow,green,word,z,800,2000,18,18,0,z,1,0.7185094000014942,None,0,18,18,58,162.12552409997443,,,,,,,,,,,162.1183519999904,162.12552409997443,162.12552409997443,162.32578649997595,162.32578649997595,,162.86114609998185,z,1,2.6133307055710184,162.8618768999877,162.8758450000023,165.47592669998994,165.46054429997457,0.7185094000014942,None,,,Shuai,001,2025-03-10_20h25.50.700,pleaseworkstroopcontrol,2024.2.4,59.99192508476104,2025-03-10 20h26.08.283831 -0700,
test,consistent,36,red,red,word,m,800,2000,19,19,0,m,1,1.4961858000024222,None,0,19,19,35,165.47592669998994,,,,,,,,,,,165.46642409998458,165.47592669998994,165.47592669998994,165.67610449998756,165.67610449998756,,166.97834089997923,m,1,1.1121746184650085,166.979174099979,166.99316799998633,168.09320759997354,168.07758679997642,1.4961858000024222,None,,,Shuai,001,2025-03-10_20h25.50.700,pleaseworkstroopcontrol,2024.2.4,59.99192508476104,2025-03-10 20h26.08.283831 -0700,
test,consistent,34,green,green,word,m,800,2000,20,20,0,m,1,0.9336262000142597,None,0,20,20,33,168.09320759997354,,,,,,,,,,,168.08419699998922,168.09320759997354,168.09320759997354,168.293296799995,168.293296799995,,169.02943309998955,m,1,5.99513386780756,169.03020909999032,169.04344519998995,175.02686839998933,175.01136859998223,0.9336262000142597,None,,,Shuai,001,2025-03-10_20h25.50.700,pleaseworkstroopcontrol,2024.2.4,59.99192508476104,2025-03-10 20h26.08.283831 -0700,
test,inconsistent,30,blue,red,word,z,800,2000,21,21,0,z,1,0.6616209000058006,None,0,21,21,29,175.02686839998933,,,,,,,,,,,175.01895719999447,175.02686839998933,175.02686839998933,175.22709349999786,175.22709349999786,,175.6962601999985,z,1,2.7890732680400574,175.6969869999739,175.71047989997896,178.4941832999757,178.47865259999526,0.6616209000058006,None,,,Shuai,001,2025-03-10_20h25.50.700,pleaseworkstroopcontrol,2024.2.4,59.99192508476104,2025-03-10 20h26.08.283831 -0700,
test,inconsistent,8,black,yellow,word,z,800,2000,22,22,0,z,1,0.6420809999981429,None,0,22,22,7,178.4941832999757,,,,,,,,,,,178.48691379997763,178.4941832999757,178.4941832999757,178.69420699999318,178.69420699999318,,179.14629689999856,z,1,2.4941406375403194,179.14719569997396,179.1610242999741,181.6445679999888,181.62864229999832,0.6420809999981429,None,,,Shuai,001,2025-03-10_20h25.50.700,pleaseworkstroopcontrol,2024.2.4,59.99192508476104,2025-03-10 20h26.08.283831 -0700,
test,inconsistent,26,green,yellow,word,z,800,2000,23,23,0,z,1,0.795453600003384,None,0,23,23,25,181.6445679999888,,,,,,,,,,,181.63512069999706,181.6445679999888,181.6445679999888,181.84447499999078,181.84447499999078,,182.44654469998204,z,1,1.1893037685134518,182.44726859999355,182.46136899999692,183.6456421999901,183.6290422999882,0.795453600003384,None,,,Shuai,001,2025-03-10_20h25.50.700,pleaseworkstroopcontrol,2024.2.4,59.99192508476104,2025-03-10 20h26.08.283831 -0700,
test,inconsistent,13,purple,red,word,z,800,2000,24,24,0,z,1,0.542212100001052,None,0,24,24,12,183.6456421999901,,,,,,,,,,,183.6391556999879,183.6456421999901,183.6456421999901,183.8447499999893,183.8447499999893,,184.1970086999936,z,1,1.7481726310333277,184.19803020000109,184.21128819999285,185.9615089999861,185.94603929997538,0.542212100001052,None,,,Shuai,001,2025-03-10_20h25.50.700,pleaseworkstroopcontrol,2024.2.4,59.99192508476104,2025-03-10 20h26.08.283831 -0700,
test,consistent,35,red,red,word,m,800,2000,25,25,0,m,1,0.8636277999903541,None,0,25,25,34,185.9615089999861,,,,,,,,,,,185.95139349999954,185.9615089999861,185.9615089999861,186.16172649999498,186.16172649999498,,186.8300353999948,m,1,5.362456910807444,186.8307326999784,186.84487989998888,192.19536149999476,192.17983349997667,0.8636277999903541,None,,,Shuai,001,2025-03-10_20h25.50.700,pleaseworkstroopcontrol,2024.2.4,59.99192508476104,2025-03-10 20h26.08.283831 -0700,
test,inconsistent,50,yellow,green,word,z,800,2000,26,26,0,z,1,0.6411158999835607,None,0,26,26,49,192.19536149999476,,,,,,,,,,,192.18796009998186,192.19536149999476,192.19536149999476,192.39550349998171,192.39550349998171,,192.84755569999106,z,1,5.012872342826731,192.8483560999739,192.86253529999522,197.86325269998633,197.84730509997462,0.6411158999835607,None,,,Shuai,001,2025-03-10_20h25.50.700,pleaseworkstroopcontrol,2024.2.4,59.99192508476104,2025-03-10 20h26.08.283831 -0700,
test,inconsistent,3,blue,red,word,z,800,2000,27,27,0,z,1,0.6044152000104077,None,0,27,27,2,197.86325269998633,,,,,,,,,,,197.85629679998965,197.86325269998633,197.86325269998633,198.06288199999835,198.06288199999835,,198.4813576999877,z,1,2.474875655858826,198.4822101999889,198.4959539999836,200.96296529998654,200.94777289999183,0.6044152000104077,None,,,Shuai,001,2025-03-10_20h25.50.700,pleaseworkstroopcontrol,2024.2.4,59.99192508476104,2025-03-10 20h26.08.283831 -0700,
test,inconsistent,37,red,green,word,z,800,2000,28,28,0,z,1,0.81103029998485,None,0,28,28,36,200.96296529998654,,,,,,,,,,,200.9539761999913,200.96296529998654,200.96296529998654,201.16303749999497,201.16303749999497,,201.78146249998827,z,1,5.963897314889769,201.7823165000009,201.79642389999935,207.7469842999999,207.73125859998981,0.81103029998485,None,,,Shuai,001,2025-03-10_20h25.50.700,pleaseworkstroopcontrol,2024.2.4,59.99192508476104,2025-03-10 20h26.08.283831 -0700,
test,consistent,7,green,green,word,m,800,2000,29,29,0,m,1,1.083443300012732,None,0,29,29,6,207.7469842999999,,,,,,,,,,,207.7383326999843,207.7469842999999,207.7469842999999,207.94683699999587,207.94683699999587,,208.8329072999768,m,1,5.018608045305168,208.8336081999878,208.84726599999703,213.86425439998857,213.84896399997524,1.083443300012732,None,,,Shuai,001,2025-03-10_20h25.50.700,pleaseworkstroopcontrol,2024.2.4,59.99192508476104,2025-03-10 20h26.08.283831 -0700,
test,consistent,40,yellow,yellow,word,m,800,2000,30,30,0,m,1,0.6586259999894537,None,0,30,30,39,213.86425439998857,,,,,,,,,,,213.85597959998995,213.86425439998857,213.86425439998857,214.06450319997384,214.06450319997384,,214.53325219999533,m,1,4.5328155214137045,214.53413729998283,214.547805899987,219.08136489999015,219.06594869997934,0.6586259999894537,None,,,Shuai,001,2025-03-10_20h25.50.700,pleaseworkstroopcontrol,2024.2.4,59.99192508476104,2025-03-10 20h26.08.283831 -0700,
test,inconsistent,56,green,red,word,z,800,2000,31,31,0,z,1,0.7292727000021841,None,0,31,31,55,219.08136489999015,,,,,,,,,,,219.07243729999755,219.08136489999015,219.08136489999015,219.2814354999864,219.2814354999864,,219.8172752999817,z,1,1.4905732980795223,219.81809409998823,219.83140989998356,221.3150693999778,221.29960449997452,0.7292727000021841,None,,,Shuai,001,2025-03-10_20h25.50.700,pleaseworkstroopcontrol,2024.2.4,59.99192508476104,2025-03-10 20h26.08.283831 -0700,
test,inconsistent,55,green,yellow,word,z,800,2000,32,32,0,z,1,0.8726881000038702,None,0,32,32,54,221.3150693999778,,,,,,,,,,,221.30123029998504,221.3150693999778,221.3150693999778,221.5152029999881,221.5152029999881,,222.20047469998826,z,1,2.9553213041510773,222.20128319997457,222.21519649997936,225.16533499999787,225.14981979998993,0.8726881000038702,None,,,Shuai,001,2025-03-10_20h25.50.700,pleaseworkstroopcontrol,2024.2.4,59.99192508476104,2025-03-10 20h26.08.283831 -0700,
test,inconsistent,39,red,yellow,word,z,800,2000,33,33,0,z,1,0.6023843000002671,None,0,33,33,38,225.16533499999787,,,,,,,,,,,225.15576559997862,225.16533499999787,225.16533499999787,225.36553739997908,225.36553739997908,,225.78406979999272,z,1,2.431212405428774,225.78493129997514,225.79867170000216,228.21586719999323,228.2002228999918,0.6023843000002671,None,,,Shuai,001,2025-03-10_20h25.50.700,pleaseworkstroopcontrol,2024.2.4,59.99192508476104,2025-03-10 20h26.08.283831 -0700,
test,inconsistent,16,red,green,word,z,800,2000,34,34,0,z,1,0.6095804000215139,None,0,34,34,15,228.21586719999323,,,,,,,,,,,228.20173679999425,228.21586719999323,228.21586719999323,228.4157886999892,228.4157886999892,,228.83438319998095,z,1,1.1287540322561675,228.83525849998114,228.84919509998872,229.96582749998197,229.95026779998443,0.6095804000215139,None,,,Shuai,001,2025-03-10_20h25.50.700,pleaseworkstroopcontrol,2024.2.4,59.99192508476104,2025-03-10 20h26.08.283831 -0700,
test,consistent,46,yellow,yellow,word,m,800,2000,35,35,0,m,1,0.7690016999840736,None,0,35,35,45,229.96582749998197,,,,,,,,,,,229.95707619999303,229.96582749998197,229.96582749998197,230.16594349997467,230.16594349997467,,230.75116999997408,m,1,5.125846173864937,230.75187670000014,230.76623829998425,235.8830010999809,235.86769909999566,0.7690016999840736,None,,,Shuai,001,2025-03-10_20h25.50.700,pleaseworkstroopcontrol,2024.2.4,59.99192508476104,2025-03-10 20h26.08.283831 -0700,
test,consistent,38,blue,blue,word,m,800,2000,36,36,0,m,1,0.8559346999973059,None,0,36,36,37,235.8830010999809,,,,,,,,,,,235.87531239999225,235.8830010999809,235.8830010999809,236.0831382999895,236.0831382999895,,236.75189629997476,m,1,2.0431745767549696,236.75264299998526,236.76659149999614,238.80011779998313,238.78419839998242,0.8559346999973059,None,,,Shuai,001,2025-03-10_20h25.50.700,pleaseworkstroopcontrol,2024.2.4,59.99192508476104,2025-03-10 20h26.08.283831 -0700,
test,inconsistent,17,yellow,green,word,z,800,2000,37,37,0,z,1,0.8210283000080381,None,0,37,37,16,238.80011779998313,,,,,,,,,,,238.79250599999796,238.80011779998313,238.80011779998313,239.00014659998124,239.00014659998124,,239.63553020000109,z,1,3.6378056081766603,239.63633109998773,239.65010410000104,243.28386089997366,243.2682952999894,0.8210283000080381,None,,,Shuai,001,2025-03-10_20h25.50.700,pleaseworkstroopcontrol,2024.2.4,59.99192508476104,2025-03-10 20h26.08.283831 -0700,
test,consistent,1,red,red,word,m,800,2000,38,38,0,m,1,0.9780130999861285,None,0,38,38,0,243.28386089997366,,,,,,,,,,,243.27410559999407,243.28386089997366,243.28386089997366,243.48385189997498,243.48385189997498,,244.26939349999884,m,1,4.431392865405168,244.27030439997907,244.28369250000105,248.70121209998615,248.68561629997566,0.9780130999861285,None,,,Shuai,001,2025-03-10_20h25.50.700,pleaseworkstroopcontrol,2024.2.4,59.99192508476104,2025-03-10 20h26.08.283831 -0700,
test,consistent,18,red,red,word,m,800,2000,39,39,0,m,1,0.6055452000000514,None,0,39,39,17,248.70121209998615,,,,,,,,,,,248.68733379998594,248.70121209998615,248.70121209998615,248.90118970000185,248.90118970000185,,249.31964559998596,m,1,5.019460326720777,249.3204899999837,249.334298199974,254.35147369999322,254.33597159999772,0.6055452000000514,None,,,Shuai,001,2025-03-10_20h25.50.700,pleaseworkstroopcontrol,2024.2.4,59.99192508476104,2025-03-10 20h26.08.283831 -0700,
test,inconsistent,29,green,blue,word,z,800,2000,40,40,0,z,1,0.6988116000138689,None,0,40,40,28,254.35147369999322,,,,,,,,,,,254.34380489998148,254.35147369999322,254.35147369999322,254.5515744999866,254.5515744999866,,255.05358310000156,z,1,2.7689499891534672,255.05451580000226,255.06824149997556,257.83525360000203,257.81977269999334,0.6988116000138689,None,,,Shuai,001,2025-03-10_20h25.50.700,pleaseworkstroopcontrol,2024.2.4,59.99192508476104,2025-03-10 20h26.08.283831 -0700,
test,inconsistent,19,green,red,word,z,800,2000,41,41,0,z,1,0.8698766999877989,None,0,41,41,18,257.83525360000203,,,,,,,,,,,257.8211010999803,257.83525360000203,257.83525360000203,258.0352231999859,258.0352231999859,,258.7208647999796,z,1,1.2710906465743905,258.7218114999996,258.7349953999801,260.0023683999898,259.9864082999993,0.8698766999877989,None,,,Shuai,001,2025-03-10_20h25.50.700,pleaseworkstroopcontrol,2024.2.4,59.99192508476104,2025-03-10 20h26.08.283831 -0700,
test,inconsistent,27,green,red,word,z,800,2000,42,42,0,z,1,0.6943971999862697,None,0,42,42,26,260.0023683999898,,,,,,,,,,,259.98826479999116,260.0023683999898,260.0023683999898,260.2025453999813,260.2025453999813,,260.70438199999626,z,1,2.936295024567994,260.7052516999829,260.71881999998004,263.6525952999946,263.63674239997636,0.6943971999862697,None,,,Shuai,001,2025-03-10_20h25.50.700,pleaseworkstroopcontrol,2024.2.4,59.99192508476104,2025-03-10 20h26.08.283831 -0700,
test,inconsistent,4,red,green,word,z,800,2000,43,43,0,z,1,0.6798628999968059,None,0,43,43,3,263.6525952999946,,,,,,,,,,,263.6428652999748,263.6525952999946,263.6525952999946,263.85254449999775,263.85254449999775,,264.33823899997515,z,1,1.4598542039459463,264.3390017999918,264.35268270000233,265.80273419999867,265.78734729997814,0.6798628999968059,None,,,Shuai,001,2025-03-10_20h25.50.700,pleaseworkstroopcontrol,2024.2.4,59.99192508476104,2025-03-10 20h26.08.283831 -0700,
test,consistent,45,red,red,word,m,800,2000,44,44,0,m,1,0.7749109000142198,None,0,44,44,44,265.80273419999867,,,,,,,,,,,265.78891539998585,265.80273419999867,265.80273419999867,266.00266089997604,266.00266089997604,,266.5880039999902,m,1,1.7240875120849177,266.5888160999748,266.602751599974,268.3195818999957,268.30422809999436,0.7749109000142198,None,,,Shuai,001,2025-03-10_20h25.50.700,pleaseworkstroopcontrol,2024.2.4,59.99192508476104,2025-03-10 20h26.08.283831 -0700,
test,inconsistent,52,red,green,word,z,800,2000,45,45,0,z,1,0.6770404000126291,None,0,45,45,51,268.3195818999957,,,,,,,,,,,268.3055728999898,268.3195818999957,268.3195818999957,268.51977819998865,268.51977819998865,,269.005253899988,z,1,3.4111679719569885,269.0063019999943,269.0196748999879,272.4202102999843,272.40452779998304,0.6770404000126291,None,,,Shuai,001,2025-03-10_20h25.50.700,pleaseworkstroopcontrol,2024.2.4,59.99192508476104,2025-03-10 20h26.08.283831 -0700,
test,consistent,47,blue,blue,word,m,800,2000,46,46,0,z,0,0.6613816000171937,None,0,46,46,46,272.4202102999843,,,,,,,,,,,272.4113178999978,272.4202102999843,272.4202102999843,272.61999089998426,272.61999089998426,,273.0886041999911,z,0,4.440315602834588,273.0894353999756,273.10352479998255,277.5368457000004,277.521734799986,0.6613816000171937,None,,,Shuai,001,2025-03-10_20h25.50.700,pleaseworkstroopcontrol,2024.2.4,59.99192508476104,2025-03-10 20h26.08.283831 -0700,
test,inconsistent,2,yellow,green,word,z,800,2000,47,47,0,z,1,1.1269281000131741,None,0,47,47,1,277.5368457000004,,,,,,,,,,,277.5300372999918,277.5368457000004,277.5368457000004,277.7370338999899,277.7370338999899,,278.6728656999767,z,1,5.635770592350338,278.6736441999965,278.6873452999862,284.3211752999923,284.30581879999954,1.1269281000131741,None,,,Shuai,001,2025-03-10_20h25.50.700,pleaseworkstroopcontrol,2024.2.4,59.99192508476104,2025-03-10 20h26.08.283831 -0700,
test,inconsistent,42,green,yellow,word,z,800,2000,48,48,0,z,1,0.852048399974592,None,0,48,48,41,284.3211752999923,,,,,,,,,,,284.3122042999894,284.3211752999923,284.3211752999923,284.52115179999964,284.52115179999964,,285.18995669999276,z,1,4.062247072415452,285.19080919999396,285.20463120000204,289.2550249999913,289.2394396000018,0.852048399974592,None,,,Shuai,001,2025-03-10_20h25.50.700,pleaseworkstroopcontrol,2024.2.4,59.99192508476104,2025-03-10 20h26.08.283831 -0700,
test,inconsistent,58,yellow,red,word,z,800,2000,49,49,0,z,1,1.1948376999935135,None,0,49,49,57,289.2550249999913,,,,,,,,,,,289.24548610000056,289.2550249999913,289.2550249999913,289.4549517999985,289.4549517999985,,290.4573783999949,z,1,1.8800293964240065,290.4580842999858,290.47208769997815,292.33852179997484,292.3233493999869,1.1948376999935135,None,,,Shuai,001,2025-03-10_20h25.50.700,pleaseworkstroopcontrol,2024.2.4,59.99192508476104,2025-03-10 20h26.08.283831 -0700,
test,inconsistent,53,red,yellow,word,z,800,2000,50,50,0,z,1,0.7243274000065867,None,0,50,50,52,292.33852179997484,,,,,,,,,,,292.3294690999901,292.33852179997484,292.33852179997484,292.5385106999893,292.5385106999893,,293.0741363999841,z,1,1.4996275756778785,293.0748901999905,293.08879529999103,294.5885061000008,294.573697099986,0.7243274000065867,None,,,Shuai,001,2025-03-10_20h25.50.700,pleaseworkstroopcontrol,2024.2.4,59.99192508476104,2025-03-10 20h26.08.283831 -0700,
test,inconsistent,14,yellow,blue,word,z,800,2000,51,51,0,z,1,0.7339850999996997,None,0,51,51,13,294.5885061000008,,,,,,,,,,,294.58179879997624,294.5885061000008,294.5885061000008,294.78867629999877,294.78867629999877,,295.32463699998334,z,1,2.1161451534517126,295.3254818999849,295.33872129998053,297.45591879999847,297.4402041999856,0.7339850999996997,None,,,Shuai,001,2025-03-10_20h25.50.700,pleaseworkstroopcontrol,2024.2.4,59.99192508476104,2025-03-10 20h26.08.283831 -0700,
test,consistent,28,yellow,yellow,word,m,800,2000,52,52,0,m,1,0.7561854000086896,None,0,52,52,27,297.45591879999847,,,,,,,,,,,297.44181459999527,297.45591879999847,297.45591879999847,297.6558367999969,297.6558367999969,,298.22451579998597,m,1,3.508065702512055,298.2253529999871,298.2391024999961,301.7395344999968,301.7244206999894,0.7561854000086896,None,,,Shuai,001,2025-03-10_20h25.50.700,pleaseworkstroopcontrol,2024.2.4,59.99192508476104,2025-03-10 20h26.08.283831 -0700,
test,consistent,51,red,red,word,m,800,2000,53,53,0,m,1,0.7488381000002846,None,0,53,53,50,301.7395344999968,,,,,,,,,,,301.7303506999742,301.7395344999968,301.7395344999968,301.93951999998535,301.93951999998535,,302.4916707999946,m,1,5.885301088765769,302.492514499987,302.50653939999756,308.389998300001,308.3747478000005,0.7488381000002846,None,,,Shuai,001,2025-03-10_20h25.50.700,pleaseworkstroopcontrol,2024.2.4,59.99192508476104,2025-03-10 20h26.08.283831 -0700,
test,inconsistent,33,yellow,green,word,z,800,2000,54,54,0,z,1,0.9791355000052135,None,0,54,54,32,308.389998300001,,,,,,,,,,,308.3838778999925,308.389998300001,308.389998300001,308.5901818999846,308.5901818999846,,309.3756998999743,z,1,3.860097968274968,309.3764363999944,309.39026259997627,313.24059409997426,313.225242799992,0.9791355000052135,None,,,Shuai,001,2025-03-10_20h25.50.700,pleaseworkstroopcontrol,2024.2.4,59.99192508476104,2025-03-10 20h26.08.283831 -0700,
test,inconsistent,22,red,yellow,word,z,800,2000,55,55,0,z,1,0.7802341000060551,None,0,55,55,21,313.24059409997426,,,,,,,,,,,313.22964509998565,313.24059409997426,313.24059409997426,313.44058439999935,313.44058439999935,,314.0263113999972,z,1,3.2581921509672416,314.02701499999966,314.0406132999924,317.2907575999852,317.27580649999436,0.7802341000060551,None,,,Shuai,001,2025-03-10_20h25.50.700,pleaseworkstroopcontrol,2024.2.4,59.99192508476104,2025-03-10 20h26.08.283831 -0700,
test,consistent,41,green,green,word,m,800,2000,56,56,0,m,1,1.0809302999987267,None,0,56,56,40,317.2907575999852,,,,,,,,,,,317.2835778000008,317.2907575999852,317.2907575999852,317.49097339998116,317.49097339998116,,318.37655559999985,m,1,2.0647640661204862,318.3774148999946,318.39087119998294,320.4412267000007,320.42590760000166,1.0809302999987267,None,,,Shuai,001,2025-03-10_20h25.50.700,pleaseworkstroopcontrol,2024.2.4,59.99192508476104,2025-03-10 20h26.08.283831 -0700,
test,consistent,43,green,green,word,m,800,2000,57,57,0,m,1,0.644900300016161,None,0,57,57,42,320.4412267000007,,,,,,,,,,,320.42782739998074,320.4412267000007,320.4412267000007,320.6412878999836,320.6412878999836,,321.09313879997353,m,1,4.969256966820035,321.0939595999953,321.1078549999802,326.0752634999808,326.0600656999741,0.644900300016161,None,,,Shuai,001,2025-03-10_20h25.50.700,pleaseworkstroopcontrol,2024.2.4,59.99192508476104,2025-03-10 20h26.08.283831 -0700,
test,consistent,23,green,green,word,m,800,2000,58,58,0,m,1,0.6343953000032343,None,0,58,58,22,326.0752634999808,,,,,,,,,,,326.0617688999919,326.0752634999808,326.0752634999808,326.2753082999843,326.2753082999843,,326.72757609997643,m,1,1.513731705355106,326.7284710999811,326.7418443999777,328.2420598999888,328.22673699998995,0.6343953000032343,None,,,Shuai,001,2025-03-10_20h25.50.700,pleaseworkstroopcontrol,2024.2.4,59.99192508476104,2025-03-10 20h26.08.283831 -0700,
test,inconsistent,27,green,red,word,z,800,2000,59,0,1,z,1,0.694923100003507,None,1,0,59,26,328.2420598999888,,,,,,,,,,,328.22814659998403,328.2420598999888,328.2420598999888,328.4420315999887,328.4420315999887,,328.94432139999117,z,1,4.077055882706885,328.94540649998817,328.95899349998217,333.0262655999977,333.0104364999861,0.694923100003507,None,,,Shuai,001,2025-03-10_20h25.50.700,pleaseworkstroopcontrol,2024.2.4,59.99192508476104,2025-03-10 20h26.08.283831 -0700,
test,inconsistent,32,orange,green,word,z,800,2000,60,1,1,z,1,0.7015774000028614,None,1,1,60,31,333.0262655999977,,,,,,,,,,,333.0185819999897,333.0262655999977,333.0262655999977,333.22600169997895,333.22600169997895,,333.74427239998477,z,1,4.76936041905034,333.74515489998157,333.7595634999743,338.52665459999116,338.5110190999985,0.7015774000028614,None,,,Shuai,001,2025-03-10_20h25.50.700,pleaseworkstroopcontrol,2024.2.4,59.99192508476104,2025-03-10 20h26.08.283831 -0700,
test,inconsistent,37,red,green,word,z,800,2000,61,2,1,z,1,0.8911288999952376,None,1,2,61,36,338.52665459999116,,,,,,,,,,,338.51577959998394,338.52665459999116,338.52665459999116,338.7267970999819,338.7267970999819,,339.42856189998565,z,1,3.223013356967645,339.4293901999772,339.4430428999767,342.6603013999993,342.6445788999845,0.8911288999952376,None,,,Shuai,001,2025-03-10_20h25.50.700,pleaseworkstroopcontrol,2024.2.4,59.99192508476104,2025-03-10 20h26.08.283831 -0700,
test,consistent,35,red,red,word,m,800,2000,62,3,1,m,1,0.8847445000137668,None,1,3,62,34,342.6603013999993,,,,,,,,,,,342.6460589999915,342.6603013999993,342.6603013999993,342.8604160999821,342.8604160999821,,343.56248169997707,m,1,1.3868174601639414,343.5632489999989,343.5769824000017,344.9605578999908,344.94484169999487,0.8847445000137668,None,,,Shuai,001,2025-03-10_20h25.50.700,pleaseworkstroopcontrol,2024.2.4,59.99192508476104,2025-03-10 20h26.08.283831 -0700,
test,consistent,47,blue,blue,word,m,800,2000,63,4,1,z,0,0.8398871999816038,None,1,4,63,46,344.9605578999908,,,,,,,,,,,344.9508483999816,344.9605578999908,344.9605578999908,345.1604926,345.1604926,,345.81270579999546,z,0,3.4830965016639492,345.8138571999734,345.82722889998695,349.310997099994,349.29552169999806,0.8398871999816038,None,,,Shuai,001,2025-03-10_20h25.50.700,pleaseworkstroopcontrol,2024.2.4,59.99192508476104,2025-03-10 20h26.08.283831 -0700,
test,consistent,36,red,red,word,m,800,2000,64,5,1,m,1,0.8252502000250388,None,1,5,64,35,349.310997099994,,,,,,,,,,,349.30110189999687,349.310997099994,349.310997099994,349.51112819998525,349.51112819998525,,350.14629949998925,m,1,5.767900802591012,350.1471650999738,350.16104549999,355.928310599993,355.9131745999912,0.8252502000250388,None,,,Shuai,001,2025-03-10_20h25.50.700,pleaseworkstroopcontrol,2024.2.4,59.99192508476104,2025-03-10 20h26.08.283831 -0700,
test,inconsistent,59,yellow,green,word,z,800,2000,65,6,1,z,1,0.8191791000135709,None,1,6,65,58,355.928310599993,,,,,,,,,,,355.9191146999947,355.928310599993,355.928310599993,356.12841249999474,356.12841249999474,,356.7635743999854,z,1,4.471993297571048,356.76444509997964,356.7784116999828,361.2452587999869,361.23000059998594,0.8191791000135709,None,,,Shuai,001,2025-03-10_20h25.50.700,pleaseworkstroopcontrol,2024.2.4,59.99192508476104,2025-03-10 20h26.08.283831 -0700,
test,consistent,12,yellow,yellow,word,m,800,2000,66,7,1,m,1,0.7492232999939006,None,1,7,66,11,361.2452587999869,,,,,,,,,,,361.23176949998015,361.2452587999869,361.2452587999869,361.4452366999758,361.4452366999758,,361.9977106000006,m,1,2.364852004795314,361.99859239999205,362.01230519998353,364.36251039998024,364.34679839998716,0.7492232999939006,None,,,Shuai,001,2025-03-10_20h25.50.700,pleaseworkstroopcontrol,2024.2.4,59.99192508476104,2025-03-10 20h26.08.283831 -0700,
test,inconsistent,33,yellow,green,word,z,800,2000,67,8,1,z,1,0.8618644000089262,None,1,8,67,32,364.36251039998024,,,,,,,,,,,364.34830059998785,364.36251039998024,364.36251039998024,364.5624243999773,364.5624243999773,,365.231023499975,z,1,2.994762122200342,365.2318417999777,365.24559139998746,368.2296617999964,368.2139801000012,0.8618644000089262,None,,,Shuai,001,2025-03-10_20h25.50.700,pleaseworkstroopcontrol,2024.2.4,59.99192508476104,2025-03-10 20h26.08.283831 -0700,
test,inconsistent,11,green,red,word,z,800,2000,68,9,1,z,1,0.6670697999943513,None,1,9,68,10,368.2296617999964,,,,,,,,,,,368.219256899989,368.2296617999964,368.2296617999964,368.42966299998807,368.42966299998807,,368.8992889999936,z,1,2.2269672831741114,368.9004154999857,368.91320359997917,371.13000569998985,371.1144208999758,0.6670697999943513,None,,,Shuai,001,2025-03-10_20h25.50.700,pleaseworkstroopcontrol,2024.2.4,59.99192508476104,2025-03-10 20h26.08.283831 -0700,
test,consistent,51,red,red,word,m,800,2000,69,10,1,m,1,0.9035353000217583,None,1,10,69,50,371.13000569998985,,,,,,,,,,,371.1195845999755,371.13000569998985,371.13000569998985,371.329711999977,371.329711999977,,372.048432999989,m,1,5.773761440451797,372.0492071999761,372.0634422999865,377.83038669999223,377.81507469998905,0.9035353000217583,None,,,Shuai,001,2025-03-10_20h25.50.700,pleaseworkstroopcontrol,2024.2.4,59.99192508476104,2025-03-10 20h26.08.283831 -0700,
test,consistent,34,green,green,word,m,800,2000,70,11,1,m,1,0.8620839000213891,None,1,11,70,33,377.83038669999223,,,,,,,,,,,377.8204982999887,377.83038669999223,377.83038669999223,378.0304212999763,378.0304212999763,,378.6991056999832,m,1,1.0971466311709994,378.7000060999999,378.7138545999769,379.7970974999771,379.78176109999185,0.8620839000213891,None,,,Shuai,001,2025-03-10_20h25.50.700,pleaseworkstroopcontrol,2024.2.4,59.99192508476104,2025-03-10 20h26.08.283831 -0700,
test,inconsistent,17,yellow,green,word,z,800,2000,71,12,1,z,1,0.8033478999859653,None,1,12,71,16,379.7970974999771,,,,,,,,,,,379.787683499977,379.7970974999771,379.7970974999771,379.9970287999895,379.9970287999895,,380.6162800999882,z,1,5.145967482831724,380.6170925999759,380.6309022999776,385.7646169999789,385.7488348999759,0.8033478999859653,None,,,Shuai,001,2025-03-10_20h25.50.700,pleaseworkstroopcontrol,2024.2.4,59.99192508476104,2025-03-10 20h26.08.283831 -0700,
test,inconsistent,4,red,green,word,z,800,2000,72,13,1,z,1,1.0722896000079345,None,1,13,72,3,385.7646169999789,,,,,,,,,,,385.7538009999844,385.7646169999789,385.7646169999789,385.964487499994,385.964487499994,,386.8495774999901,z,1,5.891214617857593,386.8504036999948,386.8646200999792,392.74847489999956,392.73326859998633,1.0722896000079345,None,,,Shuai,001,2025-03-10_20h25.50.700,pleaseworkstroopcontrol,2024.2.4,59.99192508476104,2025-03-10 20h26.08.283831 -0700,
test,consistent,41,green,green,word,m,800,2000,73,14,1,m,1,0.7352275000012014,None,1,14,73,40,392.74847489999956,,,,,,,,,,,392.7396382000006,392.74847489999956,392.74847489999956,392.94847529998515,392.94847529998515,,393.50068649998866,m,1,1.7486870535677248,393.5014304999786,393.51557179997326,395.2653372999921,395.2497394999955,0.7352275000012014,None,,,Shuai,001,2025-03-10_20h25.50.700,pleaseworkstroopcontrol,2024.2.4,59.99192508476104,2025-03-10 20h26.08.283831 -0700,
test,inconsistent,14,yellow,blue,word,z,800,2000,74,15,1,z,1,0.7592397999833338,None,1,15,74,13,395.2653372999921,,,,,,,,,,,395.2576928999915,395.2653372999921,395.2653372999921,395.4656341999944,395.4656341999944,,396.0344100999937,z,1,5.34837878891593,396.0352759999805,396.04878759998246,401.3827485999791,401.3672878999787,0.7592397999833338,None,,,Shuai,001,2025-03-10_20h25.50.700,pleaseworkstroopcontrol,2024.2.4,59.99192508476104,2025-03-10 20h26.08.283831 -0700,
test,consistent,43,green,green,word,m,800,2000,75,16,1,m,1,0.7856174999906216,None,1,16,75,42,401.3827485999791,,,,,,,,,,,401.3741205999977,401.3827485999791,401.3827485999791,401.5830668999988,401.5830668999988,,402.18488389998674,m,1,2.22087727551237,402.18568099997356,402.1994494999817,404.41647029999876,404.40088979998836,0.7856174999906216,None,,,Shuai,001,2025-03-10_20h25.50.700,pleaseworkstroopcontrol,2024.2.4,59.99192508476104,2025-03-10 20h26.08.283831 -0700,
test,consistent,45,red,red,word,m,800,2000,76,17,1,m,1,0.7397512999887113,None,1,17,76,44,404.41647029999876,,,,,,,,,,,404.40665559997433,404.41647029999876,404.41647029999876,404.616578199988,404.616578199988,,405.1684519999835,m,1,2.1466917001913446,405.169281999988,405.183134699997,407.316748799989,407.3008640999906,0.7397512999887113,None,,,Shuai,001,2025-03-10_20h25.50.700,pleaseworkstroopcontrol,2024.2.4,59.99192508476104,2025-03-10 20h26.08.283831 -0700,
test,inconsistent,48,yellow,red,word,z,800,2000,77,18,1,z,1,0.7127743000164628,None,1,18,77,47,407.316748799989,,,,,,,,,,,407.30735019998974,407.316748799989,407.316748799989,407.51671849997365,407.51671849997365,,408.0355228999979,z,1,2.2691783647455397,408.0362410999951,408.04982559999917,410.3169787999941,410.3013711999811,0.7127743000164628,None,,,Shuai,001,2025-03-10_20h25.50.700,pleaseworkstroopcontrol,2024.2.4,59.99192508476104,2025-03-10 20h26.08.283831 -0700,
test,consistent,57,yellow,yellow,word,m,800,2000,78,19,1,m,1,0.7430274000216741,None,1,19,78,56,410.3169787999941,,,,,,,,,,,410.30267710000044,410.3169787999941,410.3169787999941,410.5169973000011,410.5169973000011,,411.0690785999759,m,1,5.855150799567588,411.0698118,411.08370529999956,416.93431179999607,416.9188173000002,0.7430274000216741,None,,,Shuai,001,2025-03-10_20h25.50.700,pleaseworkstroopcontrol,2024.2.4,59.99192508476104,2025-03-10 20h26.08.283831 -0700,
test,inconsistent,52,red,green,word,z,800,2000,79,20,1,z,1,0.7755685999873094,None,1,20,79,51,416.93431179999607,,,,,,,,,,,416.9248109999753,416.93431179999607,416.93431179999607,417.1343122999824,417.1343122999824,,417.71961379999993,z,1,1.338358188596538,417.720385099994,417.73431770000025,419.0680023999885,419.051974699978,0.7755685999873094,None,,,Shuai,001,2025-03-10_20h25.50.700,pleaseworkstroopcontrol,2024.2.4,59.99192508476104,2025-03-10 20h26.08.283831 -0700,
test,inconsistent,31,yellow,red,word,z,800,2000,80,21,1,z,1,0.8695005000045057,None,1,21,80,30,419.0680023999885,,,,,,,,,,,419.0579350999906,419.0680023999885,419.0680023999885,419.26816629999666,419.26816629999666,,419.95289929999853,z,1,5.7977332101878165,419.9537911999796,419.9680749999825,425.7517553999787,425.736218999984,0.8695005000045057,None,,,Shuai,001,2025-03-10_20h25.50.700,pleaseworkstroopcontrol,2024.2.4,59.99192508476104,2025-03-10 20h26.08.283831 -0700,
test,consistent,18,red,red,word,m,800,2000,81,22,1,m,1,0.6660215000156313,None,1,22,81,17,425.7517553999787,,,,,,,,,,,425.74190019999514,425.7517553999787,425.7517553999787,425.95183689999976,425.95183689999976,,426.42096439999295,m,1,3.660468480265226,426.4218584999908,426.4352342999773,430.0855817999982,430.0701150999812,0.6660215000156313,None,,,Shuai,001,2025-03-10_20h25.50.700,pleaseworkstroopcontrol,2024.2.4,59.99192508476104,2025-03-10 20h26.08.283831 -0700,
test,inconsistent,42,green,yellow,word,z,800,2000,82,23,1,z,1,0.6581350000051316,None,1,23,82,41,430.0855817999982,,,,,,,,,,,430.0774550999922,430.0855817999982,430.0855817999982,430.28573129998404,430.28573129998404,,430.75405569997383,z,1,3.553892125342727,430.75481889999355,430.76890649998677,434.3193137999915,434.3039184999943,0.6581350000051316,None,,,Shuai,001,2025-03-10_20h25.50.700,pleaseworkstroopcontrol,2024.2.4,59.99192508476104,2025-03-10 20h26.08.283831 -0700,
test,consistent,38,blue,blue,word,m,800,2000,83,24,1,m,1,1.035287899983814,None,1,24,83,37,434.3193137999915,,,,,,,,,,,434.30995479997364,434.3193137999915,434.3193137999915,434.51934639998944,434.51934639998944,,435.37119559998973,m,1,1.7963768966205043,435.372043499985,435.386036699987,437.1694353999919,437.15385609999066,1.035287899983814,None,,,Shuai,001,2025-03-10_20h25.50.700,pleaseworkstroopcontrol,2024.2.4,59.99192508476104,2025-03-10 20h26.08.283831 -0700,
test,consistent,46,yellow,yellow,word,m,800,2000,84,25,1,m,1,0.9167872999969404,None,1,25,84,45,437.1694353999919,,,,,,,,,,,437.1597005999938,437.1694353999919,437.1694353999919,437.369772999984,437.369772999984,,438.08893499997794,m,1,4.516089057140352,438.0897355999914,438.1029101999884,442.6203107999754,442.60435299997334,0.9167872999969404,None,,,Shuai,001,2025-03-10_20h25.50.700,pleaseworkstroopcontrol,2024.2.4,59.99192508476104,2025-03-10 20h26.08.283831 -0700,
test,inconsistent,16,red,green,word,z,800,2000,85,26,1,z,1,0.6410891000123229,None,1,26,85,15,442.6203107999754,,,,,,,,,,,442.6088461999898,442.6203107999754,442.6203107999754,442.8201034999802,442.8201034999802,,443.2722855999891,z,1,1.4183211169774614,443.2730684999842,443.28680779997376,444.7036232999817,444.6882939999923,0.6410891000123229,None,,,Shuai,001,2025-03-10_20h25.50.700,pleaseworkstroopcontrol,2024.2.4,59.99192508476104,2025-03-10 20h26.08.283831 -0700,
test,inconsistent,29,green,blue,word,z,800,2000,86,27,1,z,1,0.8499067999946419,None,1,27,86,28,444.7036232999817,,,,,,,,,,,444.6962158999813,444.7036232999817,444.7036232999817,444.90359659999376,444.90359659999376,,445.55627829997684,z,1,5.8236098906181635,445.5570617999765,445.57056849999935,451.3878276999749,451.37209079999593,0.8499067999946419,None,,,Shuai,001,2025-03-10_20h25.50.700,pleaseworkstroopcontrol,2024.2.4,59.99192508476104,2025-03-10 20h26.08.283831 -0700,
test,inconsistent,13,purple,red,word,z,800,2000,87,28,1,z,1,0.8167980000143871,None,1,28,87,12,451.3878276999749,,,,,,,,,,,451.380119599984,451.3878276999749,451.3878276999749,451.58772829998634,451.58772829998634,,452.20669219997944,z,1,2.2180885982279643,452.2075315999973,452.2210745999764,454.4380518999824,454.42250279997825,0.8167980000143871,None,,,Shuai,001,2025-03-10_20h25.50.700,pleaseworkstroopcontrol,2024.2.4,59.99192508476104,2025-03-10 20h26.08.283831 -0700,
test,inconsistent,55,green,yellow,word,z,800,2000,88,29,1,z,1,0.8456584000086877,None,1,29,88,54,454.4380518999824,,,,,,,,,,,454.42793029997847,454.4380518999824,454.4380518999824,454.63808989999234,454.63808989999234,,455.29027679999126,z,1,1.564969813445999,455.29110269999364,455.3047616999829,456.87167419999605,456.8558541999955,0.8456584000086877,None,,,Shuai,001,2025-03-10_20h25.50.700,pleaseworkstroopcontrol,2024.2.4,59.99192508476104,2025-03-10 20h26.08.283831 -0700,
test,consistent,54,green,green,word,m,800,2000,89,30,1,m,1,1.9037411999888718,None,1,30,89,53,456.87167419999605,,,,,,,,,,,456.85752499999944,456.87167419999605,456.87167419999605,457.07160759999533,457.07160759999533,,458.79067170000053,m,1,5.522546394104652,458.79140329998336,458.80478959999164,464.3225227999792,464.3066530999786,1.9037411999888718,None,,,Shuai,001,2025-03-10_20h25.50.700,pleaseworkstroopcontrol,2024.2.4,59.99192508476104,2025-03-10 20h26.08.283831 -0700,
test,inconsistent,50,yellow,green,word,z,800,2000,90,31,1,z,1,1.1752607000235002,None,1,31,90,49,464.3225227999792,,,,,,,,,,,464.3130288999819,464.3225227999792,464.3225227999792,464.5222949000017,464.5222949000017,,465.5075216999976,z,1,2.9309850342762442,465.5082142999745,465.52242499997374,468.43937459998415,468.4240157000022,1.1752607000235002,None,,,Shuai,001,2025-03-10_20h25.50.700,pleaseworkstroopcontrol,2024.2.4,59.99192508476104,2025-03-10 20h26.08.283831 -0700,
test,consistent,23,green,green,word,m,800,2000,91,32,1,m,1,0.7767876999860164,None,1,32,91,22,468.43937459998415,,,,,,,,,,,468.42933629997424,468.43937459998415,468.43937459998415,468.6393977999978,468.6393977999978,,469.22537429997465,m,1,5.324177084395282,469.226162499981,469.2395838999946,474.5566040999838,474.5414818999998,0.7767876999860164,None,,,Shuai,001,2025-03-10_20h25.50.700,pleaseworkstroopcontrol,2024.2.4,59.99192508476104,2025-03-10 20h26.08.283831 -0700,
test,inconsistent,56,green,red,word,z,800,2000,92,33,1,z,1,0.7607398999971338,None,1,33,92,55,474.5566040999838,,,,,,,,,,,474.54305399997975,474.5566040999838,474.5566040999838,474.75661579999723,474.75661579999723,,475.3253767999995,z,1,5.890755072804149,475.3261739999871,475.3401164999814,481.22400899999775,481.2081513000012,0.7607398999971338,None,,,Shuai,001,2025-03-10_20h25.50.700,pleaseworkstroopcontrol,2024.2.4,59.99192508476104,2025-03-10 20h26.08.283831 -0700,
test,inconsistent,3,blue,red,word,z,800,2000,93,34,1,z,1,0.7474272999970708,None,1,34,93,2,481.22400899999775,,,,,,,,,,,481.2149681999872,481.22400899999775,481.22400899999775,481.42396099999314,481.42396099999314,,481.9760085999733,z,1,3.2140557919473243,481.9768855999864,481.99090769997565,485.19086719999905,485.1758794999914,0.7474272999970708,None,,,Shuai,001,2025-03-10_20h25.50.700,pleaseworkstroopcontrol,2024.2.4,59.99192508476104,2025-03-10 20h26.08.283831 -0700,
test,consistent,49,yellow,yellow,word,m,800,2000,94,35,1,m,1,0.8310674999956973,None,1,35,94,48,485.19086719999905,,,,,,,,,,,485.1833532000019,485.19086719999905,485.19086719999905,485.39126679999754,485.39126679999754,,486.0266914999811,m,1,5.540997426271421,486.02751329998136,486.0411518999899,491.57489409999107,491.55911989999004,0.8310674999956973,None,,,Shuai,001,2025-03-10_20h25.50.700,pleaseworkstroopcontrol,2024.2.4,59.99192508476104,2025-03-10 20h26.08.283831 -0700,
test,inconsistent,19,green,red,word,z,800,2000,95,36,1,z,1,0.6477937000163365,None,1,36,95,18,491.57489409999107,,,,,,,,,,,491.56442809998407,491.57489409999107,491.57489409999107,491.7748847999901,491.7748847999901,,492.22709689999465,z,1,2.586634573912875,492.22777609998593,492.2419278000016,494.8252641999861,494.8096567999746,0.6477937000163365,None,,,Shuai,001,2025-03-10_20h25.50.700,pleaseworkstroopcontrol,2024.2.4,59.99192508476104,2025-03-10 20h26.08.283831 -0700,
test,inconsistent,10,green,yellow,word,z,800,2000,96,37,1,z,1,0.7519102999940515,None,1,37,96,9,494.8252641999861,,,,,,,,,,,494.8109436999948,494.8252641999861,494.8252641999861,495.02549939998426,495.02549939998426,,495.5792382999789,z,1,1.7283848439668406,495.5801947999862,495.5920092999877,497.3085825999733,497.293451799982,0.7519102999940515,None,,,Shuai,001,2025-03-10_20h25.50.700,pleaseworkstroopcontrol,2024.2.4,59.99192508476104,2025-03-10 20h26.08.283831 -0700,
test,inconsistent,15,yellow,red,word,z,800,2000,97,38,1,z,1,0.6475497999927029,None,1,38,97,14,497.3085825999733,,,,,,,,,,,497.3001966000011,497.3085825999733,497.3085825999733,497.50858749999315,497.50858749999315,,497.96063929999946,z,1,5.263524488708368,497.9614799999981,497.97582969997893,503.2261924999766,503.2117663999961,0.6475497999927029,None,,,Shuai,001,2025-03-10_20h25.50.700,pleaseworkstroopcontrol,2024.2.4,59.99192508476104,2025-03-10 20h26.08.283831 -0700,
test,inconsistent,5,orange,blue,word,z,800,2000,98,39,1,z,1,0.7043410000042059,None,1,39,98,4,503.2261924999766,,,,,,,,,,,503.2185515999736,503.2261924999766,503.2261924999766,503.42643130000215,503.42643130000215,,503.9448032999935,z,1,5.223462757680042,503.94564949997584,503.9594698000001,509.17686489998596,509.1611885999737,0.7043410000042059,None,,,Shuai,001,2025-03-10_20h25.50.700,pleaseworkstroopcontrol,2024.2.4,59.99192508476104,2025-03-10 20h26.08.283831 -0700,
test,inconsistent,53,red,yellow,word,z,800,2000,99,40,1,z,1,0.9891021999937948,None,1,40,99,52,509.17686489998596,,,,,,,,,,,509.1679518999881,509.17686489998596,509.17686489998596,509.3766712999786,509.3766712999786,,510.1787161999964,z,1,5.311730201147811,510.1794116999954,510.1933926999918,515.4939119999763,515.478454600001,0.9891021999937948,None,,,Shuai,001,2025-03-10_20h25.50.700,pleaseworkstroopcontrol,2024.2.4,59.99192508476104,2025-03-10 20h26.08.283831 -0700,
test,inconsistent,39,red,yellow,word,z,800,2000,100,41,1,z,1,0.7467154999903869,None,1,41,100,38,515.4939119999763,,,,,,,,,,,515.4797644999926,515.4939119999763,515.4939119999763,515.6941181999864,515.6941181999864,,516.2461874999863,z,1,4.297118373866329,516.247034799977,516.2607379999827,520.5444596000016,520.5288555999869,0.7467154999903869,None,,,Shuai,001,2025-03-10_20h25.50.700,pleaseworkstroopcontrol,2024.2.4,59.99192508476104,2025-03-10 20h26.08.283831 -0700,
test,inconsistent,25,red,blue,word,z,800,2000,101,42,1,z,1,0.8740055999951437,None,1,42,101,24,520.5444596000016,,,,,,,,,,,520.5304778999998,520.5444596000016,520.5444596000016,520.7449649999908,520.7449649999908,,521.4299142999807,z,1,3.6074554939937302,521.4307282999798,521.4445161999902,525.044870999991,525.0293191999954,0.8740055999951437,None,,,Shuai,001,2025-03-10_20h25.50.700,pleaseworkstroopcontrol,2024.2.4,59.99192508476104,2025-03-10 20h26.08.283831 -0700,
test,inconsistent,44,green,red,word,z,800,2000,102,43,1,z,1,0.9826071999850683,None,1,43,102,43,525.044870999991,,,,,,,,,,,525.035401000001,525.044870999991,525.044870999991,525.2450723999937,525.2450723999937,,526.0310003999912,z,1,4.181871765781548,526.0322092999995,526.0449461999815,530.2289238999947,530.213002399978,0.9826071999850683,None,,,Shuai,001,2025-03-10_20h25.50.700,pleaseworkstroopcontrol,2024.2.4,59.99192508476104,2025-03-10 20h26.08.283831 -0700,
test,inconsistent,2,yellow,green,word,z,800,2000,103,44,1,z,1,1.0013448999961838,None,1,44,103,1,530.2289238999947,,,,,,,,,,,530.2200446999923,530.2289238999947,530.2289238999947,530.4287396,530.4287396,,531.2469135999854,z,1,3.459111364287306,531.2475198999746,531.2617711999919,534.7123761999828,534.6970213000022,1.0013448999961838,None,,,Shuai,001,2025-03-10_20h25.50.700,pleaseworkstroopcontrol,2024.2.4,59.99192508476104,2025-03-10 20h26.08.283831 -0700,
test,inconsistent,58,yellow,red,word,z,800,2000,104,45,1,z,1,0.880046099977335,None,1,45,104,57,534.7123761999828,,,,,,,,,,,534.6983348999929,534.7123761999828,534.7123761999828,534.9124039999733,534.9124039999733,,535.5980551999819,z,1,4.716058813911512,535.5987958999758,535.6125177999784,540.3298544999852,540.3142486999859,0.880046099977335,None,,,Shuai,001,2025-03-10_20h25.50.700,pleaseworkstroopcontrol,2024.2.4,59.99192508476104,2025-03-10 20h26.08.283831 -0700,
test,inconsistent,26,green,yellow,word,z,800,2000,105,46,1,z,1,0.687798400002066,None,1,46,105,25,540.3298544999852,,,,,,,,,,,540.3192883000011,540.3298544999852,540.3298544999852,540.5300100999884,540.5300100999884,,541.0316862999753,z,1,5.708776715123626,541.0325039999734,541.0464930999733,546.7470677999954,546.7316652000009,0.687798400002066,None,,,Shuai,001,2025-03-10_20h25.50.700,pleaseworkstroopcontrol,2024.2.4,59.99192508476104,2025-03-10 20h26.08.283831 -0700,
test,inconsistent,22,red,yellow,word,z,800,2000,106,47,1,z,1,0.6798460999852978,None,1,47,106,21,546.7470677999954,,,,,,,,,,,546.7373557999963,546.7470677999954,546.7470677999954,546.9470430999936,546.9470430999936,,547.4323314999929,z,1,4.7160962973871285,547.4331434999767,547.4471661999996,552.1639033999818,552.1489830999926,0.6798460999852978,None,,,Shuai,001,2025-03-10_20h25.50.700,pleaseworkstroopcontrol,2024.2.4,59.99192508476104,2025-03-10 20h26.08.283831 -0700,
test,inconsistent,8,black,yellow,word,z,800,2000,107,48,1,z,1,0.7590215000091121,None,1,48,107,7,552.1639033999818,,,,,,,,,,,552.1567635999818,552.1639033999818,552.1639033999818,552.3642130999942,552.3642130999942,,552.9332181999926,z,1,2.916704039528112,552.9341859999986,552.9477558999788,555.8646267000004,555.8491000999929,0.7590215000091121,None,,,Shuai,001,2025-03-10_20h25.50.700,pleaseworkstroopcontrol,2024.2.4,59.99192508476104,2025-03-10 20h26.08.283831 -0700,
test,inconsistent,9,red,blue,word,z,800,2000,108,49,1,z,1,0.63211279999814,None,1,49,108,8,555.8646267000004,,,,,,,,,,,555.854608499998,555.8646267000004,555.8646267000004,556.0647421999893,556.0647421999893,,556.5000867999915,z,1,4.271659521797264,556.5008580999856,556.5145872999856,560.7819202999817,560.7660465999797,0.63211279999814,None,,,Shuai,001,2025-03-10_20h25.50.700,pleaseworkstroopcontrol,2024.2.4,59.99192508476104,2025-03-10 20h26.08.283831 -0700,
test,consistent,40,yellow,yellow,word,m,800,2000,109,50,1,m,1,0.9512420000100974,None,1,50,109,39,560.7819202999817,,,,,,,,,,,560.7724694999924,560.7819202999817,560.7819202999817,560.9818112999783,560.9818112999783,,561.750423599995,m,1,2.6397775642751182,561.7512068999931,561.7650416999822,564.3988567999913,564.3834133999771,0.9512420000100974,None,,,Shuai,001,2025-03-10_20h25.50.700,pleaseworkstroopcontrol,2024.2.4,59.99192508476104,2025-03-10 20h26.08.283831 -0700,
test,inconsistent,6,red,yellow,word,z,800,2000,110,51,1,z,1,0.7329039999749511,None,1,51,110,5,564.3988567999913,,,,,,,,,,,564.3882964999939,564.3988567999913,564.3988567999913,564.598797899991,564.598797899991,,565.1343295999977,z,1,2.0465717793524725,565.1352271999931,565.1487973999756,567.1823934999993,567.1667209999869,0.7329039999749511,None,,,Shuai,001,2025-03-10_20h25.50.700,pleaseworkstroopcontrol,2024.2.4,59.99192508476104,2025-03-10 20h26.08.283831 -0700,
test,inconsistent,21,black,yellow,word,z,800,2000,111,52,1,z,1,0.7583718000096269,None,1,52,111,20,567.1823934999993,,,,,,,,,,,567.1737088999944,567.1823934999993,567.1823934999993,567.382489599986,567.382489599986,,567.9513076999865,z,1,2.548453329763812,567.952075499983,567.965730099997,570.4994661999808,570.4842466999835,0.7583718000096269,None,,,Shuai,001,2025-03-10_20h25.50.700,pleaseworkstroopcontrol,2024.2.4,59.99192508476104,2025-03-10 20h26.08.283831 -0700,
test,consistent,7,green,green,word,m,800,2000,112,53,1,m,1,0.8763651000044774,None,1,53,112,6,570.4994661999808,,,,,,,,,,,570.4918532999873,570.4994661999808,570.4994661999808,570.6995059999754,570.6995059999754,,571.3847132999799,m,1,4.419055258727322,571.3855647000019,571.3996476999891,575.8164733999874,575.8010326999938,0.8763651000044774,None,,,Shuai,001,2025-03-10_20h25.50.700,pleaseworkstroopcontrol,2024.2.4,59.99192508476104,2025-03-10 20h26.08.283831 -0700,
test,consistent,28,yellow,yellow,word,m,800,2000,113,54,1,m,1,0.7811097000085283,None,1,54,113,27,575.8164733999874,,,,,,,,,,,575.8069017999806,575.8164733999874,575.8164733999874,576.0165331999888,576.0165331999888,,576.6020569999819,m,1,2.180681938378465,576.6030058999895,576.6163875999919,578.7837599999912,578.767758699978,0.7811097000085283,None,,,Shuai,001,2025-03-10_20h25.50.700,pleaseworkstroopcontrol,2024.2.4,59.99192508476104,2025-03-10 20h26.08.283831 -0700,
test,inconsistent,30,blue,red,word,z,800,2000,114,55,1,z,1,0.6930341999977827,None,1,55,114,29,578.7837599999912,,,,,,,,,,,578.773675799981,578.7837599999912,578.7837599999912,578.9835845999769,578.9835845999769,,579.48546299999,z,1,5.17466116325664,579.4862873999809,579.5003880999866,584.6671337999869,584.6522043999867,0.6930341999977827,None,,,Shuai,001,2025-03-10_20h25.50.700,pleaseworkstroopcontrol,2024.2.4,59.99192508476104,2025-03-10 20h26.08.283831 -0700,
test,consistent,1,red,red,word,m,800,2000,115,56,1,m,1,0.6566905999789014,None,1,56,115,0,584.6671337999869,,,,,,,,,,,584.6579711999802,584.6671337999869,584.6671337999869,584.8674824999762,584.8674824999762,,585.3361995999876,m,1,5.578671207855389,585.3371477999899,585.3508753999777,590.9178140999866,590.9027310999809,0.6566905999789014,None,,,Shuai,001,2025-03-10_20h25.50.700,pleaseworkstroopcontrol,2024.2.4,59.99192508476104,2025-03-10 20h26.08.283831 -0700,
test,inconsistent,24,blue,green,word,z,800,2000,116,57,1,z,1,0.716901500010863,None,1,57,116,23,590.9178140999866,,,,,,,,,,,590.909256199986,590.9178140999866,590.9178140999866,591.1181484999834,591.1181484999834,,591.6375555999984,z,1,3.744887482621877,591.6384134999826,591.6516930999933,595.3853705999791,595.3697374999756,0.716901500010863,None,,,Shuai,001,2025-03-10_20h25.50.700,pleaseworkstroopcontrol,2024.2.4,59.99192508476104,2025-03-10 20h26.08.283831 -0700,
test,inconsistent,20,red,green,word,z,800,2000,117,58,1,z,1,0.7224583000061102,None,1,58,117,19,595.3853705999791,,,,,,,,,,,595.3766386999923,595.3853705999791,595.3853705999791,595.5852674999915,595.5852674999915,,596.1204998999892,z,1,5.764112527230401,596.1213742999826,596.1352323999745,601.8859644999902,601.8700654999993,0.7224583000061102,None,,,Shuai,001,2025-03-10_20h25.50.700,pleaseworkstroopcontrol,2024.2.4,59.99192508476104,2025-03-10 20h26.08.283831 -0700,
test,inconsistent,9,red,blue,word,z,800,2000,118,0,2,z,1,0.7638243999972474,None,2,0,118,8,601.8859644999902,,,,,,,,,,,601.8715890999883,601.8859644999902,601.8859644999902,602.0858791999926,602.0858791999926,,602.6547323999985,z,1,5.173478823951148,602.6555499999959,602.6690642999893,607.8364437999844,607.8208714999782,0.7638243999972474,None,,,Shuai,001,2025-03-10_20h25.50.700,pleaseworkstroopcontrol,2024.2.4,59.99192508476104,2025-03-10 20h26.08.283831 -0700,
test,inconsistent,48,yellow,red,word,z,800,2000,119,1,2,z,1,0.692044800001895,None,2,1,119,47,607.8364437999844,,,,,,,,,,,607.827618899988,607.8364437999844,607.8364437999844,608.0364269999845,608.0364269999845,,608.5390099999786,z,1,4.195171438067613,608.5399000999751,608.5533144999936,612.7369206000003,612.721444099996,0.692044800001895,None,,,Shuai,001,2025-03-10_20h25.50.700,pleaseworkstroopcontrol,2024.2.4,59.99192508476104,2025-03-10 20h26.08.283831 -0700,
test,inconsistent,37,red,green,word,z,800,2000,120,2,2,z,1,0.6433834000199568,None,2,2,120,36,612.7369206000003,,,,,,,,,,,612.7257718999754,612.7369206000003,612.7369206000003,612.9370490000001,612.9370490000001,,613.3890085999737,z,1,2.859055447629144,613.3896823999821,613.4036660999991,616.2539634999994,616.2384803999739,0.6433834000199568,None,,,Shuai,001,2025-03-10_20h25.50.700,pleaseworkstroopcontrol,2024.2.4,59.99192508476104,2025-03-10 20h26.08.283831 -0700,
test,inconsistent,8,black,yellow,word,z,800,2000,121,3,2,z,1,0.6853386000148021,None,2,3,121,7,616.2539634999994,,,,,,,,,,,616.246358799981,616.2539634999994,616.2539634999994,616.4539879999938,616.4539879999938,,616.9559810999781,z,1,4.46462911235261,616.956798899977,616.9706183999951,621.4209196000011,621.405657700001,0.6853386000148021,None,,,Shuai,001,2025-03-10_20h25.50.700,pleaseworkstroopcontrol,2024.2.4,59.99192508476104,2025-03-10 20h26.08.283831 -0700,
test,consistent,18,red,red,word,m,800,2000,122,4,2,m,1,0.7840477999998257,None,2,4,122,17,621.4209196000011,,,,,,,,,,,621.4129363999818,621.4209196000011,621.4209196000011,621.6209638,621.6209638,,622.207408599992,m,1,4.239422306586779,622.2081010999973,622.2210637999815,626.4548329999961,626.4393930999795,0.7840477999998257,None,,,Shuai,001,2025-03-10_20h25.50.700,pleaseworkstroopcontrol,2024.2.4,59.99192508476104,2025-03-10 20h26.08.283831 -0700,
test,consistent,12,yellow,yellow,word,m,800,2000,123,5,2,m,1,0.7938479000004008,None,2,5,123,11,626.4548329999961,,,,,,,,,,,626.4471943999815,626.4548329999961,626.4548329999961,626.655074499984,626.655074499984,,627.2569906999997,m,1,4.955747315295763,627.2577749999764,627.2714502000017,632.222085699992,632.2066489999997,0.7938479000004008,None,,,Shuai,001,2025-03-10_20h25.50.700,pleaseworkstroopcontrol,2024.2.4,59.99192508476104,2025-03-10 20h26.08.283831 -0700,
test,inconsistent,25,red,blue,word,z,800,2000,124,6,2,z,1,0.7554207000066526,None,2,6,124,24,632.222085699992,,,,,,,,,,,632.2116158999852,632.222085699992,632.222085699992,632.4220800999901,632.4220800999901,,632.9909222999995,z,1,2.0425566149247416,632.9917366000009,633.0055641999934,635.039340999996,635.0234269999783,0.7554207000066526,None,,,Shuai,001,2025-03-10_20h25.50.700,pleaseworkstroopcontrol,2024.2.4,59.99192508476104,2025-03-10 20h26.08.283831 -0700,
test,inconsistent,20,red,green,word,z,800,2000,125,7,2,z,1,0.7476966999820434,None,2,7,125,19,635.039340999996,,,,,,,,,,,635.0250722999917,635.039340999996,635.039340999996,635.2390969999833,635.2390969999833,,635.7910392999765,z,1,4.74174491040235,635.7917030999961,635.805818199995,640.5396520999784,640.5238703999785,0.7476966999820434,None,,,Shuai,001,2025-03-10_20h25.50.700,pleaseworkstroopcontrol,2024.2.4,59.99192508476104,2025-03-10 20h26.08.283831 -0700,
test,inconsistent,33,yellow,green,word,z,800,2000,126,8,2,z,1,0.9016378999804147,None,2,8,126,32,640.5396520999784,,,,,,,,,,,640.5321231999842,640.5396520999784,640.5396520999784,640.739828299993,640.739828299993,,641.458585299988,z,1,1.38814136261332,641.45940349999,641.4728061999776,642.8566222999943,642.8410340999835,0.9016378999804147,None,,,Shuai,001,2025-03-10_20h25.50.700,pleaseworkstroopcontrol,2024.2.4,59.99192508476104,2025-03-10 20h26.08.283831 -0700,
test,inconsistent,24,blue,green,word,z,800,2000,127,9,2,z,1,1.047686900012195,None,2,9,127,23,642.8566222999943,,,,,,,,,,,642.8478303999873,642.8566222999943,642.8566222999943,643.0565447999979,643.0565447999979,,643.9084485999774,z,1,4.511524320964467,643.9092799999926,643.9229493999737,648.4237549999962,648.4083868000016,1.047686900012195,None,,,Shuai,001,2025-03-10_20h25.50.700,pleaseworkstroopcontrol,2024.2.4,59.99192508476104,2025-03-10 20h26.08.283831 -0700,
test,inconsistent,56,green,red,word,z,800,2000,128,10,2,z,1,0.8571769999980461,None,2,10,128,55,648.4237549999962,,,,,,,,,,,648.4135166999768,648.4237549999962,648.4237549999962,648.6238257999939,648.6238257999939,,649.2926597999758,z,1,5.942885746241659,649.2934835999913,649.3071911000006,655.2410835999763,655.2255283999839,0.8571769999980461,None,,,Shuai,001,2025-03-10_20h25.50.700,pleaseworkstroopcontrol,2024.2.4,59.99192508476104,2025-03-10 20h26.08.283831 -0700,
test,consistent,41,green,green,word,m,800,2000,129,11,2,m,1,0.9110433000023477,None,2,11,129,40,655.2410835999763,,,,,,,,,,,655.2271748999774,655.2410835999763,655.2410835999763,655.4410298999865,655.4410298999865,,656.1597692999931,m,1,2.5129192910110127,656.1607924999844,656.1743438999983,658.6745323999785,658.6592293999856,0.9110433000023477,None,,,Shuai,001,2025-03-10_20h25.50.700,pleaseworkstroopcontrol,2024.2.4,59.99192508476104,2025-03-10 20h26.08.283831 -0700,
test,inconsistent,14,yellow,blue,word,z,800,2000,130,12,2,z,1,0.8687782000051811,None,2,12,130,13,658.6745323999785,,,,,,,,,,,658.6683931000007,658.6745323999785,658.6745323999785,658.8747350999911,658.8747350999911,,659.5598858000012,z,1,2.8225897078026465,659.560731799982,659.5746226999909,662.3917866999982,662.3762337999942,0.8687782000051811,None,,,Shuai,001,2025-03-10_20h25.50.700,pleaseworkstroopcontrol,2024.2.4,59.99192508476104,2025-03-10 20h26.08.283831 -0700,
test,inconsistent,39,red,yellow,word,z,800,2000,131,13,2,z,1,0.7050269999890588,None,2,13,131,38,662.3917866999982,,,,,,,,,,,662.3829397999798,662.3917866999982,662.3917866999982,662.5920761000016,662.5920761000016,,663.1105589999934,z,1,1.364289435573012,663.111585799983,663.1250665999833,664.4751396999927,664.4597918999789,0.7050269999890588,None,,,Shuai,001,2025-03-10_20h25.50.700,pleaseworkstroopcontrol,2024.2.4,59.99192508476104,2025-03-10 20h26.08.283831 -0700,
test,inconsistent,10,green,yellow,word,z,800,2000,132,14,2,z,1,0.7521374000061769,None,2,14,132,9,664.4751396999927,,,,,,,,,,,664.46499149999,664.4751396999927,664.4751396999927,664.6752249999845,664.6752249999845,,665.2439781999856,z,1,4.423516917267053,665.24481069998,665.258738399978,669.6756173999747,669.6605727999995,0.7521374000061769,None,,,Shuai,001,2025-03-10_20h25.50.700,pleaseworkstroopcontrol,2024.2.4,59.99192508476104,2025-03-10 20h26.08.283831 -0700,
test,consistent,28,yellow,yellow,word,m,800,2000,133,15,2,m,1,0.8266730000032112,None,2,15,133,27,669.6756173999747,,,,,,,,,,,669.6686057999905,669.6756173999747,669.6756173999747,669.8758518999966,669.8758518999966,,670.5112611999793,m,1,1.3131272212381582,670.5121164000011,670.5256955999939,671.8259822999826,671.8101044999785,0.8266730000032112,None,,,Shuai,001,2025-03-10_20h25.50.700,pleaseworkstroopcontrol,2024.2.4,59.99192508476104,2025-03-10 20h26.08.283831 -0700,
test,inconsistent,31,yellow,red,word,z,800,2000,134,16,2,z,1,0.6863687000004575,None,2,16,134,30,671.8259822999826,,,,,,,,,,,671.8114998999808,671.8259822999826,671.8259822999826,672.0259380999778,672.0259380999778,,672.5279256999784,z,1,1.7792989002392896,672.5286211999774,672.5427735999983,674.3098140999791,674.2941000999999,0.6863687000004575,None,,,Shuai,001,2025-03-10_20h25.50.700,pleaseworkstroopcontrol,2024.2.4,59.99192508476104,2025-03-10 20h26.08.283831 -0700,
test,consistent,40,yellow,yellow,word,m,800,2000,135,17,2,m,1,0.7450671000115108,None,2,17,135,39,674.3098140999791,,,,,,,,,,,674.2954035000002,674.3098140999791,674.3098140999791,674.5097180999874,674.5097180999874,,675.0617626999738,m,1,5.748747590674476,675.0626125999843,675.0761832999997,680.8102344999788,680.7950786000001,0.7450671000115108,None,,,Shuai,001,2025-03-10_20h25.50.700,pleaseworkstroopcontrol,2024.2.4,59.99192508476104,2025-03-10 20h26.08.283831 -0700,
test,inconsistent,11,green,red,word,z,800,2000,136,18,2,z,1,0.9990307999833021,None,2,18,136,10,680.8102344999788,,,,,,,,,,,680.8025052000012,680.8102344999788,680.8102344999788,681.010242999997,681.010242999997,,681.8128122999915,z,1,1.594688906912605,681.8135152999894,681.8269089999958,683.410541499994,683.394928099995,0.9990307999833021,None,,,Shuai,001,2025-03-10_20h25.50.700,pleaseworkstroopcontrol,2024.2.4,59.99192508476104,2025-03-10 20h26.08.283831 -0700,
test,inconsistent,22,red,yellow,word,z,800,2000,137,19,2,z,1,0.8597695999778807,None,2,19,137,21,683.410541499994,,,,,,,,,,,683.3989949999959,683.410541499994,683.410541499994,683.6105758999765,683.6105758999765,,684.2790442999976,z,1,3.061500208167186,684.2797410999774,684.2940426999994,687.3445402999932,687.3287022000004,0.8597695999778807,None,,,Shuai,001,2025-03-10_20h25.50.700,pleaseworkstroopcontrol,2024.2.4,59.99192508476104,2025-03-10 20h26.08.283831 -0700,
test,inconsistent,32,orange,green,word,z,800,2000,138,20,2,z,1,0.7904572999977972,None,2,20,138,31,687.3445402999932,,,,,,,,,,,687.3362363999768,687.3445402999932,687.3445402999932,687.5442435999867,687.5442435999867,,688.1462756999827,z,1,5.217258373322296,688.1471222999971,688.1608925999899,693.3780958999996,693.3628779999854,0.7904572999977972,None,,,Shuai,001,2025-03-10_20h25.50.700,pleaseworkstroopcontrol,2024.2.4,59.99192508476104,2025-03-10 20h26.08.283831 -0700,
test,consistent,38,blue,blue,word,m,800,2000,139,21,2,m,1,0.8267922999802977,None,2,21,139,37,693.3780958999996,,,,,,,,,,,693.3701158999756,693.3780958999996,693.3780958999996,693.5781208999979,693.5781208999979,,694.213508899993,m,1,4.140624140065396,694.2143678999855,694.2280430999817,698.362083199987,698.3466436000017,0.8267922999802977,None,,,Shuai,001,2025-03-10_20h25.50.700,pleaseworkstroopcontrol,2024.2.4,59.99192508476104,2025-03-10 20h26.08.283831 -0700,
test,consistent,7,green,green,word,m,800,2000,140,22,2,m,1,0.8759504999907222,None,2,22,140,6,698.362083199987,,,,,,,,,,,698.3554619999777,698.362083199987,698.362083199987,698.561967799993,698.561967799993,,699.2476345999748,m,1,2.7236528642635722,699.2483703999897,699.2620973000012,701.979241699999,701.9634941999975,0.8759504999907222,None,,,Shuai,001,2025-03-10_20h25.50.700,pleaseworkstroopcontrol,2024.2.4,59.99192508476104,2025-03-10 20h26.08.283831 -0700,
test,inconsistent,21,black,yellow,word,z,800,2000,141,23,2,z,1,0.7176193000050262,None,2,23,141,20,701.979241699999,,,,,,,,,,,701.9713924999814,701.979241699999,701.979241699999,702.1789678999921,702.1789678999921,,702.7143897999777,z,1,1.6572183619300465,702.715089299978,702.7289861999743,704.3791763999907,704.3635960999818,0.7176193000050262,None,,,Shuai,001,2025-03-10_20h25.50.700,pleaseworkstroopcontrol,2024.2.4,59.99192508476104,2025-03-10 20h26.08.283831 -0700,
test,inconsistent,27,green,red,word,z,800,2000,142,24,2,z,1,0.8647905999969225,None,2,24,142,26,704.3791763999907,,,,,,,,,,,704.3704730999889,704.3791763999907,704.3791763999907,704.5788940999773,704.5788940999773,,705.2478575999849,z,1,3.2047347134749447,705.248580799991,705.2626901999756,708.4632060999866,708.447539899993,0.8647905999969225,None,,,Shuai,001,2025-03-10_20h25.50.700,pleaseworkstroopcontrol,2024.2.4,59.99192508476104,2025-03-10 20h26.08.283831 -0700,
test,consistent,45,red,red,word,m,800,2000,143,25,2,m,1,0.8392665999999736,None,2,25,143,44,708.4632060999866,,,,,,,,,,,708.4518179000006,708.4632060999866,708.4632060999866,708.6629411999893,708.6629411999893,,709.3151304999774,m,1,4.546537535543715,709.3161024999863,709.3296043000009,713.8635778999887,713.8481380000012,0.8392665999999736,None,,,Shuai,001,2025-03-10_20h25.50.700,pleaseworkstroopcontrol,2024.2.4,59.99192508476104,2025-03-10 20h26.08.283831 -0700,
test,inconsistent,16,red,green,word,z,800,2000,144,26,2,z,1,0.9207450999820139,None,2,26,144,15,713.8635778999887,,,,,,,,,,,713.8497281999735,713.8635778999887,713.8635778999887,714.0635207000014,714.0635207000014,,714.7991825999925,z,1,1.3352418257252072,714.7998991999775,714.8138275999809,716.1474391999946,716.1314191999845,0.9207450999820139,None,,,Shuai,001,2025-03-10_20h25.50.700,pleaseworkstroopcontrol,2024.2.4,59.99192508476104,2025-03-10 20h26.08.283831 -0700,
test,inconsistent,17,yellow,green,word,z,800,2000,145,27,2,z,1,0.8451820999907795,None,2,27,145,16,716.1474391999946,,,,,,,,,,,716.1400869999779,716.1474391999946,716.1474391999946,716.3471510999952,716.3471510999952,,716.9985533999861,z,1,1.7975714052614329,716.9992303999898,717.0134308999986,718.7975330999761,718.781594399974,0.8451820999907795,None,,,Shuai,001,2025-03-10_20h25.50.700,pleaseworkstroopcontrol,2024.2.4,59.99192508476104,2025-03-10 20h26.08.283831 -0700,
test,consistent,57,yellow,yellow,word,m,800,2000,146,28,2,m,1,0.7409564999979921,None,2,28,146,56,718.7975330999761,,,,,,,,,,,718.7832957999781,718.7975330999761,718.7975330999761,718.9973060999764,718.9973060999764,,719.5493172999995,m,1,3.2474155595362215,719.5500853999984,719.5642350999988,722.7977148999926,722.7818065999891,0.7409564999979921,None,,,Shuai,001,2025-03-10_20h25.50.700,pleaseworkstroopcontrol,2024.2.4,59.99192508476104,2025-03-10 20h26.08.283831 -0700,
test,inconsistent,29,green,blue,word,z,800,2000,147,29,2,z,1,0.7739371000207029,None,2,29,147,28,722.7977148999926,,,,,,,,,,,722.7877213999745,722.7977148999926,722.7977148999926,722.9978369000019,722.9978369000019,,723.583247499977,z,1,2.987290911597044,723.5840113000013,723.5978278999974,726.5813822999771,726.5659903999767,0.7739371000207029,None,,,Shuai,001,2025-03-10_20h25.50.700,pleaseworkstroopcontrol,2024.2.4,59.99192508476104,2025-03-10 20h26.08.283831 -0700,
test,consistent,47,blue,blue,word,m,800,2000,148,30,2,m,1,0.7190690000134055,None,2,30,148,46,726.5813822999771,,,,,,,,,,,726.5733438999741,726.5813822999771,726.5813822999771,726.7814771999838,726.7814771999838,,727.3166052000015,m,1,5.839262220811734,727.3174500999739,727.3313744999759,733.1654990999959,733.1497767999826,0.7190690000134055,None,,,Shuai,001,2025-03-10_20h25.50.700,pleaseworkstroopcontrol,2024.2.4,59.99192508476104,2025-03-10 20h26.08.283831 -0700,
test,inconsistent,30,blue,red,word,z,800,2000,149,31,2,z,1,0.797915799979819,None,2,31,149,29,733.1654990999959,,,,,,,,,,,733.1513389999745,733.1654990999959,733.1654990999959,733.3652053999831,733.3652053999831,,733.967828599998,z,1,4.809720990659336,733.9686262999894,733.9819804999861,738.782550599979,738.767239799985,0.797915799979819,None,,,Shuai,001,2025-03-10_20h25.50.700,pleaseworkstroopcontrol,2024.2.4,59.99192508476104,2025-03-10 20h26.08.283831 -0700,
test,consistent,34,green,green,word,m,800,2000,150,32,2,m,1,0.8065895999898203,None,2,32,150,33,738.782550599979,,,,,,,,,,,738.7731953999901,738.782550599979,738.782550599979,738.9821531999914,738.9821531999914,,739.6017662999802,m,1,2.941273939899109,739.602452799998,739.6161581999913,742.5498202999879,742.5342095999804,0.8065895999898203,None,,,Shuai,001,2025-03-10_20h25.50.700,pleaseworkstroopcontrol,2024.2.4,59.99192508476104,2025-03-10 20h26.08.283831 -0700,
test,inconsistent,58,yellow,red,word,z,800,2000,151,33,2,z,1,0.6601354999875184,None,2,33,151,57,742.5498202999879,,,,,,,,,,,742.5414687999873,742.5498202999879,742.5498202999879,742.7497693999903,742.7497693999903,,743.2185546999972,z,1,4.997172261517907,743.2192483999825,743.2329929999833,748.2170171999896,748.201312499994,0.6601354999875184,None,,,Shuai,001,2025-03-10_20h25.50.700,pleaseworkstroopcontrol,2024.2.4,59.99192508476104,2025-03-10 20h26.08.283831 -0700,
test,inconsistent,50,yellow,green,word,z,800,2000,152,34,2,z,1,1.4478092000063043,None,2,34,152,49,748.2170171999896,,,,,,,,,,,748.2028991999978,748.2170171999896,748.2170171999896,748.4168352999841,748.4168352999841,,749.668856299977,z,1,2.6442700315328613,749.6697098999866,749.683489899995,752.3172880999919,752.3019119999954,1.4478092000063043,None,,,Shuai,001,2025-03-10_20h25.50.700,pleaseworkstroopcontrol,2024.2.4,59.99192508476104,2025-03-10 20h26.08.283831 -0700,
test,inconsistent,59,yellow,green,word,z,800,2000,153,35,2,z,1,0.6512240000010934,None,2,35,153,58,752.3172880999919,,,,,,,,,,,752.3036109999812,752.3172880999919,752.3172880999919,752.5173020999937,752.5173020999937,,752.9855629999947,z,1,1.5395593669459169,752.9864608999924,753.0009320999961,754.5339188999787,754.518706199975,0.6512240000010934,None,,,Shuai,001,2025-03-10_20h25.50.700,pleaseworkstroopcontrol,2024.2.4,59.99192508476104,2025-03-10 20h26.08.283831 -0700,
test,inconsistent,44,green,red,word,z,800,2000,154,36,2,z,1,0.8782250999938697,None,2,36,154,43,754.5339188999787,,,,,,,,,,,754.5267112999863,754.5339188999787,754.5339188999787,754.7340841999976,754.7340841999976,,755.4197052999807,z,1,2.0644228002205702,755.4205588999903,755.4341698999924,757.4846735999745,757.4693773999752,0.8782250999938697,None,,,Shuai,001,2025-03-10_20h25.50.700,pleaseworkstroopcontrol,2024.2.4,59.99192508476104,2025-03-10 20h26.08.283831 -0700,
test,inconsistent,2,yellow,green,word,z,800,2000,155,37,2,z,1,0.6836398000014015,None,2,37,155,1,757.4846735999745,,,,,,,,,,,757.4779254999885,757.4846735999745,757.4846735999745,757.684458099975,757.684458099975,,758.1705757999734,z,1,4.715726212779682,758.1714211999788,758.1845218999952,762.9017924999935,762.8861728999764,0.6836398000014015,None,,,Shuai,001,2025-03-10_20h25.50.700,pleaseworkstroopcontrol,2024.2.4,59.99192508476104,2025-03-10 20h26.08.283831 -0700,
test,consistent,51,red,red,word,m,800,2000,156,38,2,m,1,0.884789899981115,None,2,38,156,50,762.9017924999935,,,,,,,,,,,762.8911278999876,762.9017924999935,762.9017924999935,763.1018787999928,763.1018787999928,,763.8035206999921,m,1,3.9484517033221866,763.8043439999747,763.818454399996,767.7522399000009,767.7364132999792,0.884789899981115,None,,,Shuai,001,2025-03-10_20h25.50.700,pleaseworkstroopcontrol,2024.2.4,59.99192508476104,2025-03-10 20h26.08.283831 -0700,
test,consistent,46,yellow,yellow,word,m,800,2000,157,39,2,m,1,0.7097911000018939,None,2,39,157,45,767.7522399000009,,,,,,,,,,,767.7434402999934,767.7522399000009,767.7522399000009,767.9521917999955,767.9521917999955,,768.4707758000004,m,1,2.9655678582219234,768.4715043999895,768.4854064999963,771.4527077999956,771.4369099999894,0.7097911000018939,None,,,Shuai,001,2025-03-10_20h25.50.700,pleaseworkstroopcontrol,2024.2.4,59.99192508476104,2025-03-10 20h26.08.283831 -0700,
test,inconsistent,19,green,red,word,z,800,2000,158,40,2,z,1,0.705988100002287,None,2,40,158,18,771.4527077999956,,,,,,,,,,,771.4420635999995,771.4527077999956,771.4527077999956,771.6526740999834,771.6526740999834,,772.1713997999905,z,1,4.591820378321871,772.1720812999993,772.1859015999944,776.7699034999823,776.7541416999884,0.705988100002287,None,,,Shuai,001,2025-03-10_20h25.50.700,pleaseworkstroopcontrol,2024.2.4,59.99192508476104,2025-03-10 20h26.08.283831 -0700,
test,inconsistent,15,yellow,red,word,z,800,2000,159,41,2,z,1,0.6588096999912523,None,2,41,159,14,776.7699034999823,,,,,,,,,,,776.7608253999788,776.7699034999823,776.7699034999823,776.969985099975,776.969985099975,,777.4383741999918,z,1,2.1048452331084793,777.4390356999938,777.4532964999962,779.5534776999848,779.5375681000005,0.6588096999912523,None,,,Shuai,001,2025-03-10_20h25.50.700,pleaseworkstroopcontrol,2024.2.4,59.99192508476104,2025-03-10 20h26.08.283831 -0700,
test,inconsistent,55,green,yellow,word,z,800,2000,160,42,2,z,1,0.7964766999939457,None,2,42,160,54,779.5534776999848,,,,,,,,,,,779.5425628999947,779.5534776999848,779.5534776999848,779.7533585999918,779.7533585999918,,780.3552965999988,z,1,5.150858339654545,780.3562183999748,780.3702223,785.5207464999985,785.5050283999881,0.7964766999939457,None,,,Shuai,001,2025-03-10_20h25.50.700,pleaseworkstroopcontrol,2024.2.4,59.99192508476104,2025-03-10 20h26.08.283831 -0700,
test,consistent,54,green,green,word,m,800,2000,161,43,2,m,1,0.9298374000063632,None,2,43,161,53,785.5207464999985,,,,,,,,,,,785.506456699979,785.5207464999985,785.5207464999985,785.7208574999822,785.7208574999822,,786.4560274999822,m,1,3.223479074589887,786.4568243999965,786.4705954999954,789.6876170999894,789.6723257999984,0.9298374000063632,None,,,Shuai,001,2025-03-10_20h25.50.700,pleaseworkstroopcontrol,2024.2.4,59.99192508476104,2025-03-10 20h26.08.283831 -0700,
test,inconsistent,42,green,yellow,word,z,800,2000,162,44,2,z,1,0.7877605000103358,None,2,44,162,41,789.6876170999894,,,,,,,,,,,789.674621299986,789.6876170999894,789.6876170999894,789.8875865000009,789.8875865000009,,790.4897250999929,z,1,3.1769071795234254,790.4905731999897,790.5045406999998,793.6716260999965,793.655778299988,0.7877605000103358,None,,,Shuai,001,2025-03-10_20h25.50.700,pleaseworkstroopcontrol,2024.2.4,59.99192508476104,2025-03-10 20h26.08.283831 -0700,
test,inconsistent,26,green,yellow,word,z,800,2000,163,45,2,z,1,0.6250510000099894,None,2,45,163,25,793.6716260999965,,,,,,,,,,,793.6574715999886,793.6716260999965,793.6716260999965,793.8715754000004,793.8715754000004,,794.3069262999925,z,1,1.112979606225367,794.3081298999896,794.3213128999923,795.4218303999805,795.4061692999967,0.6250510000099894,None,,,Shuai,001,2025-03-10_20h25.50.700,pleaseworkstroopcontrol,2024.2.4,59.99192508476104,2025-03-10 20h26.08.283831 -0700,
test,consistent,43,green,green,word,m,800,2000,164,46,2,m,1,0.6873444000084419,None,2,46,164,42,795.4218303999805,,,,,,,,,,,795.4074662999774,795.4218303999805,795.4218303999805,795.6216732999892,795.6216732999892,,796.123984899983,m,1,4.351341524230618,796.1249255999865,796.1382283999992,800.4885057999927,800.4732911999745,0.6873444000084419,None,,,Shuai,001,2025-03-10_20h25.50.700,pleaseworkstroopcontrol,2024.2.4,59.99192508476104,2025-03-10 20h26.08.283831 -0700,
test,consistent,36,red,red,word,m,800,2000,165,47,2,m,1,0.7273406000167597,None,2,47,165,35,800.4885057999927,,,,,,,,,,,800.4776056999981,800.4885057999927,800.4885057999927,800.6884927999927,800.6884927999927,,801.2243639999942,m,1,5.352626992590264,801.2253664999735,801.2384875999996,806.5889692999772,806.5737359999912,0.7273406000167597,None,,,Shuai,001,2025-03-10_20h25.50.700,pleaseworkstroopcontrol,2024.2.4,59.99192508476104,2025-03-10 20h26.08.283831 -0700,
test,inconsistent,5,orange,blue,word,z,800,2000,166,48,2,z,1,0.7429938999994192,None,2,48,166,4,806.5889692999772,,,,,,,,,,,806.5801040999941,806.5889692999772,806.5889692999772,806.7891219999874,806.7891219999874,,807.341088199988,z,1,2.6071678550905535,807.3419027999917,807.3561678999977,809.9562126999954,809.9405251999851,0.7429938999994192,None,,,Shuai,001,2025-03-10_20h25.50.700,pleaseworkstroopcontrol,2024.2.4,59.99192508476104,2025-03-10 20h26.08.283831 -0700,
test,inconsistent,3,blue,red,word,z,800,2000,167,49,2,z,1,0.9447041999956127,None,2,49,167,2,809.9562126999954,,,,,,,,,,,809.9483797999856,809.9562126999954,809.9562126999954,810.1563128999842,810.1563128999842,,810.908374599996,z,1,3.3934807153560014,810.9092223999905,810.9232564999838,814.3067733999924,814.2905962999794,0.9447041999956127,None,,,Shuai,001,2025-03-10_20h25.50.700,pleaseworkstroopcontrol,2024.2.4,59.99192508476104,2025-03-10 20h26.08.283831 -0700,
test,consistent,35,red,red,word,m,800,2000,168,50,2,m,1,0.7752723000012338,None,2,50,168,34,814.3067733999924,,,,,,,,,,,814.2945694999944,814.3067733999924,814.3067733999924,814.4897767999792,814.4897767999792,,815.0920241999847,m,1,1.4569712423094847,815.0929474000004,815.106862399989,816.5569909999904,816.541263799998,0.7752723000012338,None,,,Shuai,001,2025-03-10_20h25.50.700,pleaseworkstroopcontrol,2024.2.4,59.99192508476104,2025-03-10 20h26.08.283831 -0700,
test,consistent,23,green,green,word,m,800,2000,169,51,2,m,1,0.9293351000233088,None,2,51,169,22,816.5569909999904,,,,,,,,,,,816.547401799995,816.5569909999904,816.5569909999904,816.7571150999865,816.7571150999865,,817.4924355999974,m,1,2.5953591703776357,817.4932655000011,817.507140599977,820.0905788999808,820.0751967999968,0.9293351000233088,None,,,Shuai,001,2025-03-10_20h25.50.700,pleaseworkstroopcontrol,2024.2.4,59.99192508476104,2025-03-10 20h26.08.283831 -0700,
test,consistent,1,red,red,word,m,800,2000,170,52,2,m,1,0.8064653000037652,None,2,52,170,0,820.0905788999808,,,,,,,,,,,820.0815215999901,820.0905788999808,820.0905788999808,820.2903980999836,820.2903980999836,,820.9090794999793,m,1,1.7793011194953814,820.9097732999944,820.9241050999844,822.6909441999742,822.6759290999908,0.8064653000037652,None,,,Shuai,001,2025-03-10_20h25.50.700,pleaseworkstroopcontrol,2024.2.4,59.99192508476104,2025-03-10 20h26.08.283831 -0700,
test,inconsistent,6,red,yellow,word,z,800,2000,171,53,2,z,1,0.8059285000199452,None,2,53,171,5,822.6909441999742,,,,,,,,,,,822.677569099993,822.6909441999742,822.6909441999742,822.8907985999831,822.8907985999831,,823.5098216999904,z,1,2.1036944711985526,823.5107050999941,823.5243292999803,825.6246522000001,825.608974999981,0.8059285000199452,None,,,Shuai,001,2025-03-10_20h25.50.700,pleaseworkstroopcontrol,2024.2.4,59.99192508476104,2025-03-10 20h26.08.283831 -0700,
test,inconsistent,13,purple,red,word,z,800,2000,172,54,2,z,1,0.7821039999835193,None,2,54,172,12,825.6246522000001,,,,,,,,,,,825.6156752999814,825.6246522000001,825.6246522000001,825.8245393999969,825.8245393999969,,826.4099751999893,z,1,1.7636424151353842,826.4109091999999,826.4245873999898,828.1749318999937,828.1591926999972,0.7821039999835193,None,,,Shuai,001,2025-03-10_20h25.50.700,pleaseworkstroopcontrol,2024.2.4,59.99192508476104,2025-03-10 20h26.08.283831 -0700,
test,consistent,49,yellow,yellow,word,m,800,2000,173,55,2,m,1,0.6591760999872349,None,2,55,173,48,828.1749318999937,,,,,,,,,,,828.1669817999937,828.1749318999937,828.1749318999937,828.3748754999833,828.3748754999833,,828.8432563999959,m,1,3.8610604354949665,828.8439552999916,828.8582733999938,832.7088535999937,832.6929932999774,0.6591760999872349,None,,,Shuai,001,2025-03-10_20h25.50.700,pleaseworkstroopcontrol,2024.2.4,59.99192508476104,2025-03-10 20h26.08.283831 -0700,
test,inconsistent,52,red,green,word,z,800,2000,174,56,2,z,1,0.6790049999835901,None,2,56,174,51,832.7088535999937,,,,,,,,,,,832.6980552999885,832.7088535999937,832.7088535999937,832.9087419999996,832.9087419999996,,833.3937244999979,z,1,2.825312212902375,833.3945526999887,833.4086832999892,836.2255800999992,836.2098660999909,0.6790049999835901,None,,,Shuai,001,2025-03-10_20h25.50.700,pleaseworkstroopcontrol,2024.2.4,59.99192508476104,2025-03-10 20h26.08.283831 -0700,
test,inconsistent,4,red,green,word,z,800,2000,175,57,2,z,1,0.7366487999970559,None,2,57,175,3,836.2255800999992,,,,,,,,,,,836.2122820999939,836.2255800999992,836.2255800999992,836.4256093000004,836.4256093000004,,836.977613999974,z,1,2.5048024745313207,836.9783010999963,836.9923213000002,839.4925570999912,839.4770661999937,0.7366487999970559,None,,,Shuai,001,2025-03-10_20h25.50.700,pleaseworkstroopcontrol,2024.2.4,59.99192508476104,2025-03-10 20h26.08.283831 -0700,
test,inconsistent,53,red,yellow,word,z,800,2000,176,58,2,z,1,0.7276155000145081,None,2,58,176,52,839.4925570999912,,,,,,,,,,,839.4784608999908,839.4925570999912,839.4925570999912,839.6925348999794,839.6925348999794,,840.2279720999941,z,1,5.909687606798004,840.2288549999939,840.2425581999996,846.1430179999734,846.1277483000013,0.7276155000145081,None,,,Shuai,001,2025-03-10_20h25.50.700,pleaseworkstroopcontrol,2024.2.4,59.99192508476104,2025-03-10 20h26.08.283831 -0700,
test,consistent,54,green,green,word,m,800,2000,177,0,3,m,1,0.9628801999788266,None,3,0,177,53,846.1430179999734,,,,,,,,,,,846.1342185999965,846.1430179999734,846.1430179999734,846.3430888000003,846.3430888000003,,847.1117872999748,m,1,2.5205581281740854,847.1126392000006,847.1268950999947,849.6429726999777,849.6283820999961,0.9628801999788266,None,,,Shuai,001,2025-03-10_20h25.50.700,pleaseworkstroopcontrol,2024.2.4,59.99192508476104,2025-03-10 20h26.08.283831 -0700,
test,inconsistent,9,red,blue,word,z,800,2000,178,1,3,z,1,0.7516123999957927,None,3,1,178,8,849.6429726999777,,,,,,,,,,,849.6350496999803,849.6429726999777,849.6429726999777,849.8433607999759,849.8433607999759,,850.4123385999992,z,1,4.622926595478155,850.4130481999891,850.4269810999976,855.0438775999937,855.0286741000018,0.7516123999957927,None,,,Shuai,001,2025-03-10_20h25.50.700,pleaseworkstroopcontrol,2024.2.4,59.99192508476104,2025-03-10 20h26.08.283831 -0700,
test,inconsistent,33,yellow,green,word,z,800,2000,179,2,3,z,1,0.7274660999828484,None,3,2,179,32,855.0438775999937,,,,,,,,,,,855.0366162999999,855.0438775999937,855.0438775999937,855.2439194999752,855.2439194999752,,855.7795288999914,z,1,2.79687128933989,855.7802205999906,855.7939392999979,858.5778273999749,858.562405899982,0.7274660999828484,None,,,Shuai,001,2025-03-10_20h25.50.700,pleaseworkstroopcontrol,2024.2.4,59.99192508476104,2025-03-10 20h26.08.283831 -0700,
test,consistent,49,yellow,yellow,word,m,800,2000,180,3,3,m,1,0.7521111000096425,None,3,3,180,48,858.5778273999749,,,,,,,,,,,858.5637381999986,858.5778273999749,858.5778273999749,858.7778348999855,858.7778348999855,,859.3464028000017,m,1,3.807142540557901,859.3472764999897,859.3613782999746,863.161532099999,863.1460596999968,0.7521111000096425,None,,,Shuai,001,2025-03-10_20h25.50.700,pleaseworkstroopcontrol,2024.2.4,59.99192508476104,2025-03-10 20h26.08.283831 -0700,
test,inconsistent,29,green,blue,word,z,800,2000,181,4,3,z,1,0.7252134000009391,None,3,4,181,28,863.161532099999,,,,,,,,,,,863.1535501999897,863.161532099999,863.161532099999,863.3616841999756,863.3616841999756,,863.8958508999785,z,1,5.119985335984485,863.8963666999771,863.9113738999877,869.0288853999809,869.0131455999799,0.7252134000009391,None,,,Shuai,001,2025-03-10_20h25.50.700,pleaseworkstroopcontrol,2024.2.4,59.99192508476104,2025-03-10 20h26.08.283831 -0700,
test,inconsistent,31,yellow,red,word,z,800,2000,182,5,3,z,1,0.7339500000234693,None,3,5,182,30,869.0288853999809,,,,,,,,,,,869.0210030000017,869.0288853999809,869.0288853999809,869.2286214999913,869.2286214999913,,869.7654231999768,z,1,2.9517121329139693,869.766281499993,869.7789567,872.7291662999778,872.7136324000021,0.7339500000234693,None,,,Shuai,001,2025-03-10_20h25.50.700,pleaseworkstroopcontrol,2024.2.4,59.99192508476104,2025-03-10 20h26.08.283831 -0700,
test,inconsistent,25,red,blue,word,z,800,2000,183,6,3,z,1,1.1419430999958422,None,3,6,183,24,872.7291662999778,,,,,,,,,,,872.7181278999778,872.7291662999778,872.7291662999778,872.9291620999866,872.9291620999866,,873.8815045999945,z,1,5.444413821646313,873.8822211999795,873.8958626999811,879.3299704999954,879.3145317999879,1.1419430999958422,None,,,Shuai,001,2025-03-10_20h25.50.700,pleaseworkstroopcontrol,2024.2.4,59.99192508476104,2025-03-10 20h26.08.283831 -0700,
test,consistent,36,red,red,word,m,800,2000,184,7,3,m,1,0.8341368999972474,None,3,7,184,35,879.3299704999954,,,,,,,,,,,879.3162836999982,879.3299704999954,879.3299704999954,879.5299257999868,879.5299257999868,,880.1664638999791,m,1,3.860904208846304,880.1673498999735,880.1799042999919,884.0304072999861,884.0146741999779,0.8341368999972474,None,,,Shuai,001,2025-03-10_20h25.50.700,pleaseworkstroopcontrol,2024.2.4,59.99192508476104,2025-03-10 20h26.08.283831 -0700,
test,consistent,46,yellow,yellow,word,m,800,2000,185,8,3,m,1,0.727835600002436,None,3,8,185,45,884.0304072999861,,,,,,,,,,,884.0223437999957,884.0304072999861,884.0304072999861,884.2303952999937,884.2303952999937,,884.7658104999864,m,1,4.364145242937095,884.7666000999743,884.7805372999865,889.1308694999898,889.1154404999979,0.727835600002436,None,,,Shuai,001,2025-03-10_20h25.50.700,pleaseworkstroopcontrol,2024.2.4,59.99192508476104,2025-03-10 20h26.08.283831 -0700,
test,inconsistent,56,green,red,word,z,800,2000,186,9,3,z,1,0.7163784999866039,None,3,9,186,55,889.1308694999898,,,,,,,,,,,889.122912699997,889.1308694999898,889.1308694999898,889.3308032999921,889.3308032999921,,889.8496763999865,z,1,2.6650305341158655,889.8504361999803,889.8643691999896,892.5311865999829,892.515090299974,0.7163784999866039,None,,,Shuai,001,2025-03-10_20h25.50.700,pleaseworkstroopcontrol,2024.2.4,59.99192508476104,2025-03-10 20h26.08.283831 -0700,
test,consistent,34,green,green,word,m,800,2000,187,10,3,m,1,0.7306967000185978,None,3,10,187,33,892.5311865999829,,,,,,,,,,,892.5163903999783,892.5311865999829,892.5311865999829,892.7312340999779,892.7312340999779,,893.2663404999766,m,1,5.319537941128897,893.2671588999801,893.2812075999973,898.5981919999758,898.5830275999906,0.7306967000185978,None,,,Shuai,001,2025-03-10_20h25.50.700,pleaseworkstroopcontrol,2024.2.4,59.99192508476104,2025-03-10 20h26.08.283831 -0700,
test,consistent,57,yellow,yellow,word,m,800,2000,188,11,3,m,1,0.7554034999920987,None,3,11,188,56,898.5981919999758,,,,,,,,,,,898.5907536000013,898.5981919999758,898.5981919999758,898.7981222999806,898.7981222999806,,899.367235999991,m,1,4.169193020778909,899.3681667999772,899.3817532999965,903.5487661999941,903.5335687999905,0.7554034999920987,None,,,Shuai,001,2025-03-10_20h25.50.700,pleaseworkstroopcontrol,2024.2.4,59.99192508476104,2025-03-10 20h26.08.283831 -0700,
test,consistent,40,yellow,yellow,word,m,800,2000,189,12,3,m,1,1.2690987999958452,None,3,12,189,39,903.5487661999941,,,,,,,,,,,903.5351842999808,903.5487661999941,903.5487661999941,903.7488388999773,903.7488388999773,,904.8346932999848,m,1,4.857404860096638,904.8355338999827,904.848763499991,909.6992529999989,909.6841104999767,1.2690987999958452,None,,,Shuai,001,2025-03-10_20h25.50.700,pleaseworkstroopcontrol,2024.2.4,59.99192508476104,2025-03-10 20h26.08.283831 -0700,
test,inconsistent,16,red,green,word,z,800,2000,190,13,3,z,1,0.7092874000081792,None,3,13,190,15,909.6992529999989,,,,,,,,,,,909.6898041999957,909.6992529999989,909.6992529999989,909.8993622999988,909.8993622999988,,910.4188091999968,z,1,2.983290979680021,910.4196750999836,910.4330551999738,913.4167243999837,913.4008329999924,0.7092874000081792,None,,,Shuai,001,2025-03-10_20h25.50.700,pleaseworkstroopcontrol,2024.2.4,59.99192508476104,2025-03-10 20h26.08.283831 -0700,
test,inconsistent,20,red,green,word,z,800,2000,191,14,3,z,1,0.9682571000012103,None,3,14,191,19,913.4167243999837,,,,,,,,,,,913.402134199976,913.4167243999837,913.4167243999837,913.6166694999847,913.6166694999847,,914.4015637999983,z,1,2.3833850857809398,914.4024099999806,914.4166101999872,916.7999049999926,916.7847126999986,0.9682571000012103,None,,,Shuai,001,2025-03-10_20h25.50.700,pleaseworkstroopcontrol,2024.2.4,59.99192508476104,2025-03-10 20h26.08.283831 -0700,
test,inconsistent,10,green,yellow,word,z,800,2000,192,15,3,z,1,0.6993286999932025,None,3,15,192,9,916.7999049999926,,,,,,,,,,,916.7918245999899,916.7999049999926,916.7999049999926,916.9999137999839,916.9999137999839,,917.5028645999846,z,1,2.9810383429886964,917.5037405999901,917.5170920999954,920.483863899979,920.4685537999903,0.6993286999932025,None,,,Shuai,001,2025-03-10_20h25.50.700,pleaseworkstroopcontrol,2024.2.4,59.99192508476104,2025-03-10 20h26.08.283831 -0700,
test,inconsistent,2,yellow,green,word,z,800,2000,193,16,3,z,1,0.9472077999962494,None,3,16,193,1,920.483863899979,,,,,,,,,,,920.4763125999889,920.483863899979,920.483863899979,920.6838609999977,920.6838609999977,,921.4362538999994,z,1,3.7066948539859377,921.4370760999736,921.4506020999979,925.1508632999903,925.1355520999932,0.9472077999962494,None,,,Shuai,001,2025-03-10_20h25.50.700,pleaseworkstroopcontrol,2024.2.4,59.99192508476104,2025-03-10 20h26.08.283831 -0700,
test,consistent,23,green,green,word,m,800,2000,194,17,3,m,1,0.8172210000047926,None,3,17,194,22,925.1508632999903,,,,,,,,,,,925.1409778999805,925.1508632999903,925.1508632999903,925.3509451999853,925.3509451999853,,925.9704835999873,m,1,5.593926471774038,925.971278699988,925.9844202999957,931.5684456999879,931.5528441999923,0.8172210000047926,None,,,Shuai,001,2025-03-10_20h25.50.700,pleaseworkstroopcontrol,2024.2.4,59.99192508476104,2025-03-10 20h26.08.283831 -0700,
test,inconsistent,19,green,red,word,z,800,2000,195,18,3,z,1,0.6431089000252541,None,3,18,195,18,931.5684456999879,,,,,,,,,,,931.5546394999838,931.5684456999879,931.5684456999879,931.7683565999905,931.7683565999905,,932.2206561999919,z,1,2.87112642317254,932.2215995999868,932.2351433000003,935.1019253999984,935.0867724999844,0.6431089000252541,None,,,Shuai,001,2025-03-10_20h25.50.700,pleaseworkstroopcontrol,2024.2.4,59.99192508476104,2025-03-10 20h26.08.283831 -0700,
test,inconsistent,14,yellow,blue,word,z,800,2000,196,19,3,z,1,0.7156766999978572,None,3,19,196,13,935.1019253999984,,,,,,,,,,,935.0933029000007,935.1019253999984,935.1019253999984,935.3018082999915,935.3018082999915,,935.8206588999892,z,1,2.9946511949310124,935.8214542999922,935.8353732999822,938.8192032999941,938.8033553999849,0.7156766999978572,None,,,Shuai,001,2025-03-10_20h25.50.700,pleaseworkstroopcontrol,2024.2.4,59.99192508476104,2025-03-10 20h26.08.283831 -0700,
test,consistent,1,red,red,word,m,800,2000,197,20,3,m,1,0.7579340999945998,None,3,20,197,0,938.8192032999941,,,,,,,,,,,938.808509800001,938.8192032999941,938.8192032999941,939.019026199996,939.019026199996,,939.5878871999739,m,1,2.5065341255939204,939.5887635999825,939.6023578999739,942.102339199977,942.0879666999972,0.7579340999945998,None,,,Shuai,001,2025-03-10_20h25.50.700,pleaseworkstroopcontrol,2024.2.4,59.99192508476104,2025-03-10 20h26.08.283831 -0700,
test,inconsistent,39,red,yellow,word,z,800,2000,198,21,3,z,1,0.6864689000067301,None,3,21,198,38,942.102339199977,,,,,,,,,,,942.0895440999884,942.102339199977,942.102339199977,942.3024776999955,942.3024776999955,,942.8043826999783,z,1,2.7718903330816085,942.8052771999792,942.819542799989,945.586436499987,945.5709447999834,0.6864689000067301,None,,,Shuai,001,2025-03-10_20h25.50.700,pleaseworkstroopcontrol,2024.2.4,59.99192508476104,2025-03-10 20h26.08.283831 -0700,
test,consistent,45,red,red,word,m,800,2000,199,22,3,m,1,0.6607902999967337,None,3,22,199,44,945.586436499987,,,,,,,,,,,945.5725562000007,945.586436499987,945.586436499987,945.7864583999908,945.7864583999908,,946.2549314999778,m,1,5.036639414959083,946.2556680999987,946.2699677999772,951.3033169999835,951.2880969999824,0.6607902999967337,None,,,Shuai,001,2025-03-10_20h25.50.700,pleaseworkstroopcontrol,2024.2.4,59.99192508476104,2025-03-10 20h26.08.283831 -0700,
test,consistent,12,yellow,yellow,word,m,800,2000,200,23,3,m,1,0.7380381999828387,None,3,23,200,11,951.3033169999835,,,,,,,,,,,951.2952470000018,951.3033169999835,951.3033169999835,951.5036037999962,951.5036037999962,,952.0556092999759,m,1,2.6671404260062053,952.0564470999816,952.0705573000014,954.7376533999923,954.7218839999987,0.7380381999828387,None,,,Shuai,001,2025-03-10_20h25.50.700,pleaseworkstroopcontrol,2024.2.4,59.99192508476104,2025-03-10 20h26.08.283831 -0700,
test,inconsistent,44,green,red,word,z,800,2000,201,24,3,z,1,1.0734496999939438,None,3,24,201,43,954.7376533999923,,,,,,,,,,,954.7306440999964,954.7376533999923,954.7376533999923,954.9372527999803,954.9372527999803,,955.8228935999796,z,1,5.1320661483083345,955.8239720999845,955.8373575999867,960.9713084999821,960.955676499987,1.0734496999939438,None,,,Shuai,001,2025-03-10_20h25.50.700,pleaseworkstroopcontrol,2024.2.4,59.99192508476104,2025-03-10 20h26.08.283831 -0700,
test,inconsistent,22,red,yellow,word,z,800,2000,202,25,3,z,1,0.7931050999904983,None,3,25,202,21,960.9713084999821,,,,,,,,,,,960.960883599997,960.9713084999821,960.9713084999821,961.1713132000004,961.1713132000004,,961.7734340999741,z,1,2.588636630938432,961.7740948999999,961.7880932999833,964.3715928999882,964.3561293999956,0.7931050999904983,None,,,Shuai,001,2025-03-10_20h25.50.700,pleaseworkstroopcontrol,2024.2.4,59.99192508476104,2025-03-10 20h26.08.283831 -0700,
test,inconsistent,55,green,yellow,word,z,800,2000,203,26,3,z,1,0.7861794000200462,None,3,26,203,54,964.3715928999882,,,,,,,,,,,964.3632043999969,964.3715928999882,964.3715928999882,964.5715499999933,964.5715499999933,,965.1737660999934,z,1,5.804445744080699,965.1744913999864,965.1884781999979,970.9890555999882,970.9731346999761,0.7861794000200462,None,,,Shuai,001,2025-03-10_20h25.50.700,pleaseworkstroopcontrol,2024.2.4,59.99192508476104,2025-03-10 20h26.08.283831 -0700,
test,inconsistent,52,red,green,word,z,800,2000,204,27,3,z,1,0.8248525000235531,None,3,27,204,51,970.9890555999882,,,,,,,,,,,970.9794105999754,970.9890555999882,970.9890555999882,971.1888557999919,971.1888557999919,,971.8241642999928,z,1,3.4507164287946983,971.8251582999947,971.8398519999755,975.2893810999813,975.2738396999775,0.8248525000235531,None,,,Shuai,001,2025-03-10_20h25.50.700,pleaseworkstroopcontrol,2024.2.4,59.99192508476104,2025-03-10 20h26.08.283831 -0700,
test,inconsistent,15,yellow,red,word,z,800,2000,205,28,3,z,1,0.6934274999948684,None,3,28,205,14,975.2893810999813,,,,,,,,,,,975.2811670999799,975.2893810999813,975.2893810999813,975.4894166000013,975.4894166000013,,975.991543399985,z,1,3.7707528078128134,975.9922203999886,976.0059133999748,979.7730895999994,979.7574000999739,0.6934274999948684,None,,,Shuai,001,2025-03-10_20h25.50.700,pleaseworkstroopcontrol,2024.2.4,59.99192508476104,2025-03-10 20h26.08.283831 -0700,
test,consistent,47,blue,blue,word,m,800,2000,206,29,3,m,1,0.8656056000036187,None,3,29,206,46,979.7730895999994,,,,,,,,,,,979.763549299998,979.7730895999994,979.7730895999994,979.9730434999801,979.9730434999801,,980.6420057999785,m,1,5.9546733053129985,980.6430261999776,980.6561255999841,986.6069180999766,986.5914655999804,0.8656056000036187,None,,,Shuai,001,2025-03-10_20h25.50.700,pleaseworkstroopcontrol,2024.2.4,59.99192508476104,2025-03-10 20h26.08.283831 -0700,
test,consistent,43,green,green,word,m,800,2000,207,30,3,m,1,0.7403073000023142,None,3,30,207,42,986.6069180999766,,,,,,,,,,,986.5978686999879,986.6069180999766,986.6069180999766,986.8069822999823,986.8069822999823,,987.3589969000022,m,1,4.5865522001591925,987.3598985999997,987.3739311999816,991.9611489999807,991.9422848999966,0.7403073000023142,None,,,Shuai,001,2025-03-10_20h25.50.700,pleaseworkstroopcontrol,2024.2.4,59.99192508476104,2025-03-10 20h26.08.283831 -0700,
test,inconsistent,13,purple,red,word,z,800,2000,208,31,3,z,1,1.0160050999838859,None,3,31,208,12,991.9611489999807,,,,,,,,,,,991.9518750999996,991.9611489999807,991.9611489999807,992.1574345999979,992.1574345999979,,992.9928757999733,z,1,2.881722933324576,992.9937611999922,993.007664499979,995.8912803999847,995.8760987999849,1.0160050999838859,None,,,Shuai,001,2025-03-10_20h25.50.700,pleaseworkstroopcontrol,2024.2.4,59.99192508476104,2025-03-10 20h26.08.283831 -0700,
