type,condition1,trialNo,stim1,textColor,stimFormat,key,ITI,presTime,thisN,thisTrialN,thisRepN,key_resp.keys,key_resp.corr,key_resp.rt,key_resp.duration,stroop.thisRepN,stroop.thisTrialN,stroop.thisN,stroop.thisIndex,thisRow.t,notes,welcome.started,text_welcome.started,press_space.started,welcome.stopped,press_space.keys,press_space.rt,press_space.duration,trial.started,key_resp.started,randomImage.started,randomImage.stopped,text_stroop.started,dot.started,text_stroop.stopped,trial.stopped,stroop.key_resp.keys,stroop.key_resp.corr,stroop.key_resp.rt,stroop.key_resp.duration,time_fixation,fixation.started,dot_fixation.started,dot_fixation.stopped,fixation.stopped,dot.stopped,thanks.started,thank_you.started,thanks.stopped,participant,session,date,expName,psychopyVersion,frameRate,expStart,
,,,,,,,,,,,,,,,,,,,,,,0.0044225999736227095,0.00782879997859709,0.00782879997859709,9.067247899976792,space,9.036807600001339,None,,,,,,,,,,,,,,,,,,,,,,Shuai,001,2025-03-10_21h05.36.509,stroop,2024.2.4,60.118553784455635,2025-03-10 21h05.51.201030 -0700,
test,inconsistent,10,green,yellow,word,z,800,2000,0,0,0,z,1,1.0662467000074685,None,0,0,0,9,9.665676799981156,,,,,,,,,9.372430199990049,9.665676799981156,9.665676799981156,9.665676799981156,9.665676799981156,9.773870699980762,9.773870699980762,10.741296199994395,z,1,1.0662467000074685,None,1.1407399843883668,10.742156299995258,10.757488599978387,12.427160899998853,11.874527699983446,,,,,Shuai,001,2025-03-10_21h05.36.509,stroop,2024.2.4,60.118553784455635,2025-03-10 21h05.51.201030 -0700,
test,inconsistent,55,green,yellow,word,z,800,2000,1,1,0,z,1,0.7764634000195656,None,0,1,1,54,12.427160899998853,,,,,,,,,12.283386799972504,12.427160899998853,12.427160899998853,12.427160899998853,12.427160899998853,12.590981199988164,12.590981199988164,13.20828029999393,z,1,0.7764634000195656,None,4.592806551469852,13.209183300001314,13.224162099999376,18.29918239999097,17.79182949999813,,,,,Shuai,001,2025-03-10_21h05.36.509,stroop,2024.2.4,60.118553784455635,2025-03-10 21h05.51.201030 -0700,
test,inconsistent,6,red,yellow,word,z,800,2000,2,2,0,z,1,0.6672259999904782,None,0,2,2,5,18.29918239999097,,,,,,,,,17.99797089997446,18.29918239999097,18.29918239999097,18.29918239999097,18.29918239999097,18.50832470000023,18.50832470000023,18.975376999995206,z,1,0.6672259999904782,None,4.047620929440879,18.976192699978128,18.991649399977177,23.680464799981564,23.009261399973184,,,,,Shuai,001,2025-03-10_21h05.36.509,stroop,2024.2.4,60.118553784455635,2025-03-10 21h05.51.201030 -0700,
test,inconsistent,58,yellow,red,word,z,800,2000,3,3,0,z,1,0.5609470999916084,None,0,3,3,57,23.680464799981564,,,,,,,,,23.389616699976614,23.680464799981564,23.680464799981564,23.680464799981564,23.680464799981564,23.725518599996576,23.725518599996576,24.242440799978795,z,1,0.5609470999916084,None,3.08045596709601,24.243319999979576,24.258235299988883,27.880322399985744,27.30912539997371,,,,,Shuai,001,2025-03-10_21h05.36.509,stroop,2024.2.4,60.118553784455635,2025-03-10 21h05.51.201030 -0700,
test,inconsistent,4,red,green,word,z,800,2000,4,4,0,z,1,1.123253300000215,None,0,4,4,3,27.880322399985744,,,,,,,,,27.740123600000516,27.880322399985744,27.880322399985744,28.93530589999864,27.880322399985744,28.00932620000094,28.00932620000094,29.00954759999877,z,1,1.123253300000215,None,1.181958425385299,29.010377899976447,29.02556929999264,30.841424499987625,30.176112999994075,,,,,Shuai,001,2025-03-10_21h05.36.509,stroop,2024.2.4,60.118553784455635,2025-03-10 21h05.51.201030 -0700,
test,consistent,1,red,red,word,m,800,2000,5,5,0,m,1,0.715250700013712,None,0,5,5,0,30.841424499987625,,,,,,,,,30.53938809997635,30.841424499987625,30.841424499987625,30.841424499987625,30.841424499987625,30.892883399996208,30.892883399996208,31.55983759998344,m,1,0.715250700013712,None,5.605301199260293,31.56067149998853,31.57636249999632,37.78181129999575,37.160356899985345,,,,,Shuai,001,2025-03-10_21h05.36.509,stroop,2024.2.4,60.118553784455635,2025-03-10 21h05.51.201030 -0700,
test,inconsistent,2,yellow,green,word,z,800,2000,6,6,0,z,1,0.6479083000158425,None,0,6,6,1,37.78181129999575,,,,,,,,,37.48055609999574,37.78181129999575,37.78181129999575,37.78181129999575,37.78181129999575,37.87653699997463,37.87653699997463,38.44406869998784,z,1,0.6479083000158425,None,4.051927569842446,38.44487599999411,38.46039599998039,42.96708619999117,42.49419769999804,,,,,Shuai,001,2025-03-10_21h05.36.509,stroop,2024.2.4,60.118553784455635,2025-03-10 21h05.51.201030 -0700,
test,inconsistent,31,yellow,red,word,z,800,2000,7,7,0,z,1,0.7393313999928068,None,0,7,7,30,42.96708619999117,,,,,,,,,42.82507120000082,42.96708619999117,42.96708619999117,42.96708619999117,42.96708619999117,43.21066269997391,43.21066269997391,43.711178999976255,z,1,0.7393313999928068,None,1.4375764153526336,43.71195769999758,43.72720279998612,45.469281999976374,45.144499899994116,,,,,Shuai,001,2025-03-10_21h05.36.509,stroop,2024.2.4,60.118553784455635,2025-03-10 21h05.51.201030 -0700,
test,inconsistent,3,blue,red,word,z,800,2000,8,8,0,z,1,1.0510701000166591,None,0,8,8,2,45.469281999976374,,,,,,,,,45.37648099998478,45.469281999976374,45.469281999976374,,45.469281999976374,45.844352999993134,45.844352999993134,46.52865059999749,z,1,1.0510701000166591,None,1.5310015675361952,46.52956989998347,46.54432739998447,48.669659299979685,48.04490129998885,,,,,Shuai,001,2025-03-10_21h05.36.509,stroop,2024.2.4,60.118553784455635,2025-03-10 21h05.51.201030 -0700,
test,consistent,51,red,red,word,m,800,2000,9,9,0,m,1,0.7925440999970306,None,0,9,9,50,48.669659299979685,,,,,,,,,48.37398389997543,48.669659299979685,48.669659299979685,48.669659299979685,48.669659299979685,48.7442986999813,48.7442986999813,49.47851349998382,m,1,0.7925440999970306,None,1.4035381933421363,49.47971039998811,49.49423719997867,51.60952689999249,50.87848239997402,,,,,Shuai,001,2025-03-10_21h05.36.509,stroop,2024.2.4,60.118553784455635,2025-03-10 21h05.51.201030 -0700,
test,inconsistent,24,blue,green,word,z,800,2000,10,10,0,None,0,,,0,10,10,23,51.60952689999249,,,,,,,,,51.31321829999797,51.60952689999249,51.60952689999249,51.60952689999249,51.60952689999249,51.613194999983534,51.613194999983534,55.86255409999285,None,0,,,2.2879844977506987,55.86340360000031,55.87837589997798,58.76338349998696,58.14581229997566,55.87837589997798,,,,Shuai,001,2025-03-10_21h05.36.509,stroop,2024.2.4,60.118553784455635,2025-03-10 21h05.51.201030 -0700,
test,consistent,46,yellow,yellow,word,m,800,2000,11,11,0,m,1,0.6623547999770381,None,0,11,11,45,58.76338349998696,,,,,,,,,58.54386809997959,58.76338349998696,58.76338349998696,58.76338349998696,58.76338349998696,58.84557199999108,58.84557199999108,59.42921059997752,m,1,0.6623547999770381,None,4.440960797076321,59.43021319998661,59.44526219999534,64.47351630000048,63.862911899981555,,,,,Shuai,001,2025-03-10_21h05.36.509,stroop,2024.2.4,60.118553784455635,2025-03-10 21h05.51.201030 -0700,
test,inconsistent,27,green,red,word,z,800,2000,12,12,0,z,1,0.7463457999983802,None,0,12,12,26,64.47351630000048,,,,,,,,,64.17380530000082,64.47351630000048,64.47351630000048,64.47351630000048,64.47351630000048,64.56227559997933,64.56227559997933,65.23019529998419,z,1,0.7463457999983802,None,2.4278609975211416,65.23121629998786,65.24618589997408,68.22126489999937,67.64683109999169,,,,,Shuai,001,2025-03-10_21h05.36.509,stroop,2024.2.4,60.118553784455635,2025-03-10 21h05.51.201030 -0700,
test,inconsistent,39,red,yellow,word,z,800,2000,13,13,0,z,1,0.9174696000118274,None,0,13,13,38,68.22126489999937,,,,,,,,,67.99404069999582,68.22126489999937,68.22126489999937,68.22126489999937,68.22126489999937,68.36311069998192,68.36311069998192,69.14728829998057,z,1,0.9174696000118274,None,4.965206518727847,69.14823679998517,69.16295259998878,74.48848469997756,74.09734749997733,,,,,Shuai,001,2025-03-10_21h05.36.509,stroop,2024.2.4,60.118553784455635,2025-03-10 21h05.51.201030 -0700,
test,consistent,36,red,red,word,m,800,2000,14,14,0,m,1,0.6932109999761451,None,0,14,14,35,74.48848469997756,,,,,,,,,74.31728809999186,74.48848469997756,74.48848469997756,74.48848469997756,74.48848469997756,74.81338749997667,74.81338749997667,75.19802789998357,m,1,0.6932109999761451,None,2.4893323128033376,75.198868699983,75.21341050000046,78.26619319999008,77.68069129998912,,,,,Shuai,001,2025-03-10_21h05.36.509,stroop,2024.2.4,60.118553784455635,2025-03-10 21h05.51.201030 -0700,
test,inconsistent,52,red,green,word,z,800,2000,15,15,0,z,1,0.9614430000074208,None,0,15,15,51,78.26619319999008,,,,,,,,,77.96670159997302,78.26619319999008,78.26619319999008,78.26619319999008,78.26619319999008,78.3808370999759,78.3808370999759,79.23160329999519,z,1,0.9614430000074208,None,4.548090974678142,79.23236229998292,79.24757809998118,84.19029039997258,83.76496169998427,,,,,Shuai,001,2025-03-10_21h05.36.509,stroop,2024.2.4,60.118553784455635,2025-03-10 21h05.51.201030 -0700,
test,consistent,41,green,green,word,m,800,2000,16,16,0,m,1,1.1919700000144076,None,0,16,16,40,84.19029039997258,,,,,,,,,84.08760689999326,84.19029039997258,84.19029039997258,85.28881059997366,84.19029039997258,84.4651179999928,84.4651179999928,85.39881179999793,m,1,1.1919700000144076,None,2.4685920339480116,85.39966779999668,85.41484739998123,88.37573379999958,87.86532289997558,,,,,Shuai,001,2025-03-10_21h05.36.509,stroop,2024.2.4,60.118553784455635,2025-03-10 21h05.51.201030 -0700,
test,inconsistent,13,purple,red,word,z,800,2000,17,17,0,z,1,0.6533492999733426,None,0,17,17,12,88.37573379999958,,,,,,,,,88.2145787999907,88.37573379999958,88.37573379999958,88.37573379999958,88.37573379999958,88.58198359998642,88.58198359998642,89.03242599999066,z,1,0.6533492999733426,None,4.424427600213914,89.03324319998501,89.04822440000135,93.89963239998906,93.44901109999046,,,,,Shuai,001,2025-03-10_21h05.36.509,stroop,2024.2.4,60.118553784455635,2025-03-10 21h05.51.201030 -0700,
test,consistent,54,green,green,word,m,800,2000,18,18,0,m,1,0.7398898000246845,None,0,18,18,53,93.89963239998906,,,,,,,,,93.75295949997962,93.89963239998906,93.89963239998906,93.89963239998906,93.89963239998906,94.14887569998973,94.14887569998973,94.64958199998364,m,1,0.7398898000246845,None,2.7111315042119353,94.65044719999423,94.66547329997411,97.85649209999247,97.34970239998074,,,,,Shuai,001,2025-03-10_21h05.36.509,stroop,2024.2.4,60.118553784455635,2025-03-10 21h05.51.201030 -0700,
test,consistent,34,green,green,word,m,800,2000,19,19,0,m,1,0.6279234999965411,None,0,19,19,33,97.85649209999247,,,,,,,,,97.55277249999926,97.85649209999247,97.85649209999247,97.85649209999247,97.85649209999247,98.06616550000035,98.06616550000035,98.50014929997269,m,1,0.6279234999965411,None,4.002335423840282,98.50115919997916,98.51618999999482,103.32552959999884,102.50016049999977,,,,,Shuai,001,2025-03-10_21h05.36.509,stroop,2024.2.4,60.118553784455635,2025-03-10 21h05.51.201030 -0700,
test,consistent,18,red,red,word,m,800,2000,20,20,0,m,1,0.9529892999853473,None,0,20,20,17,103.32552959999884,,,,,,,,,102.93041559998528,103.32552959999884,103.32552959999884,103.32552959999884,103.32552959999884,103.32892739999807,103.32892739999807,104.28382439998677,m,1,0.9529892999853473,None,4.598794001365368,104.28469939998467,104.2998179999995,109.5390347999928,108.86738919999334,,,,,Shuai,001,2025-03-10_21h05.36.509,stroop,2024.2.4,60.118553784455635,2025-03-10 21h05.51.201030 -0700,
test,consistent,49,yellow,yellow,word,m,800,2000,21,21,0,m,1,0.6873967999999877,None,0,21,21,48,109.5390347999928,,,,,,,,,109.23644369997783,109.5390347999928,109.5390347999928,109.5390347999928,109.5390347999928,109.58391119999578,109.58391119999578,110.2345599999826,m,1,0.6873967999999877,None,4.738932899072578,110.23529429998598,110.25012299997616,115.62268729999778,114.96906639999361,,,,,Shuai,001,2025-03-10_21h05.36.509,stroop,2024.2.4,60.118553784455635,2025-03-10 21h05.51.201030 -0700,
test,consistent,35,red,red,word,m,800,2000,22,22,0,m,1,0.6273224999895319,None,0,22,22,34,115.62268729999778,,,,,,,,,115.40105699998094,115.62268729999778,115.62268729999778,115.62268729999778,115.62268729999778,115.68425149997347,115.68425149997347,116.25163559999783,m,1,0.6273224999895319,None,2.281783582078308,116.25247809998109,116.2674228999822,119.03058249998139,118.51807299998472,,,,,Shuai,001,2025-03-10_21h05.36.509,stroop,2024.2.4,60.118553784455635,2025-03-10 21h05.51.201030 -0700,
test,inconsistent,42,green,yellow,word,z,800,2000,23,23,0,z,1,0.8101557999907527,None,0,23,23,41,119.03058249998139,,,,,,,,,118.72923439997248,119.03058249998139,119.03058249998139,119.03058249998139,119.03058249998139,119.21824819999165,119.21824819999165,119.8519259999739,z,1,0.8101557999907527,None,2.076299604031697,119.85264219998498,119.86791849997826,122.56684879999375,121.91874759999337,,,,,Shuai,001,2025-03-10_21h05.36.509,stroop,2024.2.4,60.118553784455635,2025-03-10 21h05.51.201030 -0700,
test,inconsistent,17,yellow,green,word,z,800,2000,24,24,0,z,1,0.8920989999896847,None,0,24,24,16,122.56684879999375,,,,,,,,,122.26989199998206,122.56684879999375,122.56684879999375,122.56684879999375,122.56684879999375,122.63534369997797,122.63534369997797,123.46898729997338,z,1,0.8920989999896847,None,5.506131218712944,123.46973529999377,123.48510479999823,129.61117359998752,128.96957399998792,,,,,Shuai,001,2025-03-10_21h05.36.509,stroop,2024.2.4,60.118553784455635,2025-03-10 21h05.51.201030 -0700,
test,inconsistent,59,yellow,green,word,z,800,2000,25,25,0,z,1,0.9605393999954686,None,0,25,25,58,129.61117359998752,,,,,,,,,129.3097388999886,129.61117359998752,129.61117359998752,129.61117359998752,129.61117359998752,129.6858327999944,129.6858327999944,130.5868463999941,z,1,0.9605393999954686,None,1.2427682885662408,130.58802759999526,130.60227849998046,132.51836239997647,131.8196182999818,,,,,Shuai,001,2025-03-10_21h05.36.509,stroop,2024.2.4,60.118553784455635,2025-03-10 21h05.51.201030 -0700,
test,inconsistent,26,green,yellow,word,z,800,2000,26,26,0,z,1,1.0815352000063285,None,0,26,26,25,132.51836239997647,,,,,,,,,132.2556999999797,132.51836239997647,132.51836239997647,132.51836239997647,132.51836239997647,132.52111059997696,132.52111059997696,133.6030946999963,z,1,1.0815352000063285,None,1.807915304672403,133.603948199976,133.61886079999385,135.80159529999946,135.40342869999586,,,,,Shuai,001,2025-03-10_21h05.36.509,stroop,2024.2.4,60.118553784455635,2025-03-10 21h05.51.201030 -0700,
test,inconsistent,37,red,green,word,z,800,2000,27,27,0,z,1,1.2033821000077296,None,0,27,27,36,135.80159529999946,,,,,,,,,135.7018494999793,135.80159529999946,135.80159529999946,136.89768349999213,135.80159529999946,136.10314519997337,136.10314519997337,137.02056139998604,z,1,1.2033821000077296,None,4.106618518200225,137.021330699994,137.03663299998152,141.8509407999809,141.12041599999066,,,,,Shuai,001,2025-03-10_21h05.36.509,stroop,2024.2.4,60.118553784455635,2025-03-10 21h05.51.201030 -0700,
test,inconsistent,20,red,green,word,z,800,2000,28,28,0,z,1,0.8278750999888871,None,0,28,28,19,141.8509407999809,,,,,,,,,141.54944909998449,141.8509407999809,141.8509407999809,141.8509407999809,141.8509407999809,141.85458359998302,141.85458359998302,142.68737559998408,z,1,0.8278750999888871,None,4.017671157667634,142.68819119999534,142.70372389999102,147.37039989998448,146.70437349998974,,,,,Shuai,001,2025-03-10_21h05.36.509,stroop,2024.2.4,60.118553784455635,2025-03-10 21h05.51.201030 -0700,
test,inconsistent,22,red,yellow,word,z,800,2000,29,29,0,z,1,0.6493804999918211,None,0,29,29,21,147.37039989998448,,,,,,,,,147.06924839998828,147.37039989998448,147.37039989998448,147.37039989998448,147.37039989998448,147.40407259998028,147.40407259998028,148.02121159998933,z,1,0.6493804999918211,None,4.3973492362833415,148.02206089999527,148.03765289997682,153.0518882999895,152.4051542999805,,,,,Shuai,001,2025-03-10_21h05.36.509,stroop,2024.2.4,60.118553784455635,2025-03-10 21h05.51.201030 -0700,
test,inconsistent,50,yellow,green,word,z,800,2000,30,30,0,z,1,0.6092157000093721,None,0,30,30,49,153.0518882999895,,,,,,,,,152.79193389997818,153.0518882999895,153.0518882999895,153.0518882999895,153.0518882999895,153.1212789999845,153.1212789999845,153.67182389998925,z,1,0.6092157000093721,None,1.3790389140332358,153.67252039999585,153.68814039998688,155.65890099998796,155.0387532999739,,,,,Shuai,001,2025-03-10_21h05.36.509,stroop,2024.2.4,60.118553784455635,2025-03-10 21h05.51.201030 -0700,
test,consistent,12,yellow,yellow,word,m,800,2000,31,31,0,m,1,0.8082201999786776,None,0,31,31,11,155.65890099998796,,,,,,,,,155.3589190999919,155.65890099998796,155.65890099998796,155.65890099998796,155.65890099998796,155.7548981999862,155.7548981999862,156.47265049998532,m,1,0.8082201999786776,None,3.836978618419277,156.47348969997256,156.4883712999872,160.92550009998376,160.30582419998245,,,,,Shuai,001,2025-03-10_21h05.36.509,stroop,2024.2.4,60.118553784455635,2025-03-10 21h05.51.201030 -0700,
test,consistent,40,yellow,yellow,word,m,800,2000,32,32,0,m,1,0.7130434999999125,None,0,32,32,39,160.92550009998376,,,,,,,,,160.70359530000133,160.92550009998376,160.92550009998376,160.92550009998376,160.92550009998376,161.02210159998504,161.02210159998504,161.6560429999954,m,1,0.7130434999999125,None,4.353597906334459,161.65701599998283,161.6716894999845,166.63951829998405,166.00610169998254,,,,,Shuai,001,2025-03-10_21h05.36.509,stroop,2024.2.4,60.118553784455635,2025-03-10 21h05.51.201030 -0700,
test,inconsistent,8,black,yellow,word,z,800,2000,33,33,0,z,1,0.7188838000001851,None,0,33,33,7,166.63951829998405,,,,,,,,,166.3467348999984,166.63951829998405,166.63951829998405,166.63951829998405,166.63951829998405,166.7225296999968,166.7225296999968,167.37339439999778,z,1,0.7188838000001851,None,1.2798945570335742,167.3741694999917,167.38870229999884,169.35681219998514,168.6399067999737,,,,,Shuai,001,2025-03-10_21h05.36.509,stroop,2024.2.4,60.118553784455635,2025-03-10 21h05.51.201030 -0700,
test,inconsistent,5,orange,blue,word,z,800,2000,34,34,0,z,1,0.7269069000030868,None,0,34,34,4,169.35681219998514,,,,,,,,,168.9593439999735,169.35681219998514,169.35681219998514,169.35681219998514,169.35681219998514,169.360199799994,169.360199799994,170.09042129997397,z,1,0.7269069000030868,None,2.5070143558079128,170.09140899998602,170.1064244999725,173.30326749998494,172.59041169998818,,,,,Shuai,001,2025-03-10_21h05.36.509,stroop,2024.2.4,60.118553784455635,2025-03-10 21h05.51.201030 -0700,
test,inconsistent,29,green,blue,word,z,800,2000,35,35,0,z,1,0.8190643000125419,None,0,35,35,28,173.30326749998494,,,,,,,,,173.00628839997808,173.30326749998494,173.30326749998494,173.30326749998494,173.30326749998494,173.30636829999276,173.30636829999276,174.12416939999093,z,1,0.8190643000125419,None,1.406206218218867,174.12491089999094,174.13994499997352,175.90880399997695,175.5244094999798,,,,,Shuai,001,2025-03-10_21h05.36.509,stroop,2024.2.4,60.118553784455635,2025-03-10 21h05.51.201030 -0700,
test,consistent,7,green,green,word,m,800,2000,36,36,0,m,1,0.9017860000021756,None,0,36,36,6,175.90880399997695,,,,,,,,,175.8991574999818,175.90880399997695,175.90880399997695,176.91225539997686,175.90880399997695,176.24022819998208,176.24022819998208,176.91270749998512,m,1,0.9017860000021756,None,5.2482768451638835,176.91359929999453,176.91690869999002,182.6072647999972,182.15807179998956,,,,,Shuai,001,2025-03-10_21h05.36.509,stroop,2024.2.4,60.118553784455635,2025-03-10 21h05.51.201030 -0700,
test,inconsistent,44,green,red,word,z,800,2000,37,37,0,z,1,0.6822288999974262,None,0,37,37,43,182.6072647999972,,,,,,,,,182.37102089999826,182.6072647999972,182.6072647999972,182.6072647999972,182.6072647999972,182.87422169998172,182.87422169998172,183.29156779998448,z,1,0.6822288999974262,None,5.783130257876847,183.2923723999993,183.30780759998015,189.6664440999739,189.05872489998,,,,,Shuai,001,2025-03-10_21h05.36.509,stroop,2024.2.4,60.118553784455635,2025-03-10 21h05.51.201030 -0700,
test,consistent,57,yellow,yellow,word,m,800,2000,38,38,0,m,1,0.9466964000021107,None,0,38,38,56,189.6664440999739,,,,,,,,,189.36702869998408,189.6664440999739,189.6664440999739,189.6664440999739,189.6664440999739,189.7752511999861,189.7752511999861,190.62596939998912,m,1,0.9466964000021107,None,2.1498702959366565,190.62678219997906,190.64140289998613,193.3795325999963,192.77565159997903,,,,,Shuai,001,2025-03-10_21h05.36.509,stroop,2024.2.4,60.118553784455635,2025-03-10 21h05.51.201030 -0700,
test,inconsistent,16,red,green,word,z,800,2000,39,39,0,z,1,0.9117457999964245,None,0,39,39,15,193.3795325999963,,,,,,,,,193.0716280999768,193.3795325999963,193.3795325999963,193.3795325999963,193.3795325999963,193.49191519999295,193.49191519999295,194.2925860999967,z,1,0.9117457999964245,None,4.5508125330066305,194.29336729997885,194.3086715999816,199.40454659998068,198.84335949999513,,,,,Shuai,001,2025-03-10_21h05.36.509,stroop,2024.2.4,60.118553784455635,2025-03-10 21h05.51.201030 -0700,
test,inconsistent,15,yellow,red,word,z,800,2000,40,40,0,z,1,0.7286610000010114,None,0,40,40,14,199.40454659998068,,,,,,,,,199.18686579997302,199.40454659998068,199.40454659998068,199.40454659998068,199.40454659998068,199.5592102999799,199.5592102999799,200.14343179998104,z,1,0.7286610000010114,None,4.80613201711661,200.14442719999352,200.15945599999395,205.3108808999823,204.94361829999252,,,,,Shuai,001,2025-03-10_21h05.36.509,stroop,2024.2.4,60.118553784455635,2025-03-10 21h05.51.201030 -0700,
test,inconsistent,19,green,red,word,z,800,2000,41,41,0,z,1,0.8957877000211738,None,0,41,41,18,205.3108808999823,,,,,,,,,205.2308076999907,205.3108808999823,205.3108808999823,,205.3108808999823,205.65985529997852,205.65985529997852,206.21059489998152,z,1,0.8957877000211738,None,4.226182929172161,206.21146069999668,206.22674579999875,211.03400149999652,210.42751009998028,,,,,Shuai,001,2025-03-10_21h05.36.509,stroop,2024.2.4,60.118553784455635,2025-03-10 21h05.51.201030 -0700,
test,inconsistent,9,red,blue,word,z,800,2000,42,42,0,z,1,0.6587837000261061,None,0,42,42,8,211.03400149999652,,,,,,,,,210.73155869997572,211.03400149999652,211.03400149999652,211.03400149999652,211.03400149999652,211.1440476999851,211.1440476999851,211.69432499998948,z,1,0.6587837000261061,None,5.994826171265002,211.69522719999077,211.71069889998762,218.27038179998635,217.6781405999791,,,,,Shuai,001,2025-03-10_21h05.36.509,stroop,2024.2.4,60.118553784455635,2025-03-10 21h05.51.201030 -0700,
test,consistent,43,green,green,word,m,800,2000,43,43,0,m,1,0.7659574999997858,None,0,43,43,42,218.27038179998635,,,,,,,,,218.0346563999774,218.27038179998635,218.27038179998635,218.27038179998635,218.27038179998635,218.394650799979,218.394650799979,219.04538959998172,m,1,0.7659574999997858,None,1.3609966123066966,219.04622469999595,219.06107969998266,221.0032566000009,220.3949834999803,,,,,Shuai,001,2025-03-10_21h05.36.509,stroop,2024.2.4,60.118553784455635,2025-03-10 21h05.51.201030 -0700,
test,consistent,45,red,red,word,m,800,2000,44,44,0,m,1,0.8329216000274755,None,0,44,44,44,221.0032566000009,,,,,,,,,220.7018196999852,221.0032566000009,221.0032566000009,221.0032566000009,221.0032566000009,221.09437879998586,221.09437879998586,221.84556429999066,m,1,0.8329216000274755,None,1.7200709293433083,221.84643099998357,221.86160269999527,224.23785289999796,223.56195699999807,,,,,Shuai,001,2025-03-10_21h05.36.509,stroop,2024.2.4,60.118553784455635,2025-03-10 21h05.51.201030 -0700,
test,inconsistent,56,green,red,word,z,800,2000,45,45,0,z,1,0.7809793000051286,None,0,45,45,55,224.23785289999796,,,,,,,,,223.9403130999999,224.23785289999796,224.23785289999796,224.23785289999796,224.23785289999796,224.26153689998318,224.26153689998318,225.0291278999939,z,1,0.7809793000051286,None,5.79831279542107,225.03014709998388,225.04508879999048,231.32879709999543,230.81307429997833,,,,,Shuai,001,2025-03-10_21h05.36.509,stroop,2024.2.4,60.118553784455635,2025-03-10 21h05.51.201030 -0700,
test,inconsistent,53,red,yellow,word,z,800,2000,46,46,0,z,1,1.0065839999879245,None,0,46,46,52,231.32879709999543,,,,,,,,,231.1582612999773,231.32879709999543,231.32879709999543,231.32879709999543,231.32879709999543,231.5121318999736,231.5121318999736,232.34662939998088,z,1,1.0065839999879245,None,3.864496270314268,232.34764649998397,232.36238159998902,236.6527690999792,236.19682569999713,,,,,Shuai,001,2025-03-10_21h05.36.509,stroop,2024.2.4,60.118553784455635,2025-03-10 21h05.51.201030 -0700,
test,consistent,28,yellow,yellow,word,m,800,2000,47,47,0,m,1,0.8201351999887265,None,0,47,47,27,236.6527690999792,,,,,,,,,236.43070009999792,236.6527690999792,236.6527690999792,236.6527690999792,236.6527690999792,236.91276019997895,236.91276019997895,237.48052429998643,m,1,0.8201351999887265,None,1.3808279319577763,237.48126449997653,237.49638050000067,239.18224569997983,238.84666569999536,,,,,Shuai,001,2025-03-10_21h05.36.509,stroop,2024.2.4,60.118553784455635,2025-03-10 21h05.51.201030 -0700,
test,inconsistent,30,blue,red,word,z,800,2000,48,48,0,z,1,0.7948109999997541,None,0,48,48,29,239.18224569997983,,,,,,,,,239.08424579998245,239.18224569997983,239.18224569997983,,239.18224569997983,239.54679079999914,239.54679079999914,239.9806645999779,z,1,0.7948109999997541,None,1.8903240022922332,239.98189549997915,239.99655809998512,242.46333269999013,241.86409199997433,,,,,Shuai,001,2025-03-10_21h05.36.509,stroop,2024.2.4,60.118553784455635,2025-03-10 21h05.51.201030 -0700,
test,inconsistent,33,yellow,green,word,z,800,2000,49,49,0,z,1,0.7835345999919809,None,0,49,49,32,242.46333269999013,,,,,,,,,242.16137779998826,242.46333269999013,242.46333269999013,242.46333269999013,242.46333269999013,242.5802713999874,242.5802713999874,243.2643357999914,z,1,0.7835345999919809,None,5.5999828898834405,243.26515299998573,243.2802352999861,249.43317029997706,248.864497499977,,,,,Shuai,001,2025-03-10_21h05.36.509,stroop,2024.2.4,60.118553784455635,2025-03-10 21h05.51.201030 -0700,
test,inconsistent,48,yellow,red,word,z,800,2000,50,50,0,z,1,0.7189323999918997,None,0,50,50,47,249.43317029997706,,,,,,,,,249.21256339998217,249.43317029997706,249.43317029997706,249.43317029997706,249.43317029997706,249.56439829999,249.56439829999,250.16438259999268,z,1,0.7189323999918997,None,2.760096395309883,250.16556659998605,250.18020629999228,253.5012281999807,252.91445199999725,,,,,Shuai,001,2025-03-10_21h05.36.509,stroop,2024.2.4,60.118553784455635,2025-03-10 21h05.51.201030 -0700,
test,consistent,47,blue,blue,word,m,800,2000,51,51,0,m,1,0.6019436999922618,None,0,51,51,46,253.5012281999807,,,,,,,,,253.20280809997348,253.5012281999807,253.5012281999807,253.5012281999807,253.5012281999807,253.63080359998276,253.63080359998276,254.1147895999893,m,1,0.6019436999922618,None,1.0673461436588907,254.11545849998947,254.13068559998646,255.82998979999684,255.18175329998485,,,,,Shuai,001,2025-03-10_21h05.36.509,stroop,2024.2.4,60.118553784455635,2025-03-10 21h05.51.201030 -0700,
test,consistent,38,blue,blue,word,m,800,2000,52,52,0,m,1,0.556016600021394,None,0,52,52,37,255.82998979999684,,,,,,,,,255.5286862999783,255.82998979999684,255.82998979999684,255.82998979999684,255.82998979999684,255.8816427999991,255.8816427999991,256.39882029997534,m,1,0.556016600021394,None,5.171503508341573,256.39965549999033,256.4150453999755,262.3472179999808,261.56578409997746,,,,,Shuai,001,2025-03-10_21h05.36.509,stroop,2024.2.4,60.118553784455635,2025-03-10 21h05.51.201030 -0700,
test,inconsistent,14,yellow,blue,word,z,800,2000,53,53,0,z,1,0.79816090001259,None,0,53,53,13,262.3472179999808,,,,,,,,,261.945989299973,262.3472179999808,262.3472179999808,262.3472179999808,262.3472179999808,262.35024859997793,262.35024859997793,263.14949969999725,z,1,0.79816090001259,None,1.6397953346699836,263.15034469999955,263.1654394999787,265.5738564999774,264.7826150999754,,,,,Shuai,001,2025-03-10_21h05.36.509,stroop,2024.2.4,60.118553784455635,2025-03-10 21h05.51.201030 -0700,
test,consistent,23,green,green,word,m,800,2000,54,54,0,m,1,0.7047633999900427,None,0,54,54,22,265.5738564999774,,,,,,,,,265.2796108999755,265.5738564999774,265.5738564999774,265.5738564999774,265.5738564999774,265.5771536999964,265.5771536999964,266.28326399999787,m,1,0.7047633999900427,None,1.5312188490048386,266.2840380999842,266.2991295999964,268.4130947999947,267.79988259999664,,,,,Shuai,001,2025-03-10_21h05.36.509,stroop,2024.2.4,60.118553784455635,2025-03-10 21h05.51.201030 -0700,
test,inconsistent,11,green,red,word,z,800,2000,55,55,0,z,1,0.5750609999813605,None,0,55,55,10,268.4130947999947,,,,,,,,,268.19180069997674,268.4130947999947,268.4130947999947,268.4130947999947,268.4130947999947,268.4995438999904,268.4995438999904,268.99999209999805,z,1,0.5750609999813605,None,4.955070032820243,269.00082549999934,269.0158950999903,274.4023912999837,273.9505503999826,,,,,Shuai,001,2025-03-10_21h05.36.509,stroop,2024.2.4,60.118553784455635,2025-03-10 21h05.51.201030 -0700,
test,inconsistent,21,black,yellow,word,z,800,2000,56,56,0,z,1,0.6591997999930754,None,0,56,56,20,274.4023912999837,,,,,,,,,274.25759939997806,274.4023912999837,274.4023912999837,274.4023912999837,274.4023912999837,274.6664623999968,274.6664623999968,275.06767049999326,z,1,0.6591997999930754,None,1.7167103560569372,275.06856129999505,275.08327659999486,277.10209770000074,276.78386769999634,,,,,Shuai,001,2025-03-10_21h05.36.509,stroop,2024.2.4,60.118553784455635,2025-03-10 21h05.51.201030 -0700,
test,inconsistent,32,orange,green,word,z,800,2000,57,57,0,z,1,0.8701384000014514,None,0,57,57,31,277.10209770000074,,,,,,,,,277.0032572999771,277.10209770000074,277.10209770000074,,277.10209770000074,277.4843105999753,277.4843105999753,277.9846590999805,z,1,0.8701384000014514,None,4.970471655894766,277.98554959998,278.00049139998737,283.55154489999404,282.9513658999931,,,,,Shuai,001,2025-03-10_21h05.36.509,stroop,2024.2.4,60.118553784455635,2025-03-10 21h05.51.201030 -0700,
test,inconsistent,25,red,blue,word,z,800,2000,58,58,0,z,1,0.7272388999990653,None,0,58,58,24,283.55154489999404,,,,,,,,,283.31909789997735,283.55154489999404,283.55154489999404,283.55154489999404,283.55154489999404,283.66774589999113,283.66774589999113,284.2845999999845,z,1,0.7272388999990653,None,2.0425752150476324,284.2854646999913,284.3006890999968,287.0706148999743,286.3184366999776,,,,,Shuai,001,2025-03-10_21h05.36.509,stroop,2024.2.4,60.118553784455635,2025-03-10 21h05.51.201030 -0700,
test,consistent,1,red,red,word,m,800,2000,59,0,1,m,1,0.7755216999794357,None,1,0,59,0,287.0706148999743,,,,,,,,,286.6686139999947,287.0706148999743,287.0706148999743,287.0706148999743,287.0706148999743,287.07367009998416,287.07367009998416,287.8518431999837,m,1,0.7755216999794357,None,5.353976222260037,287.85299859999213,287.8682106999913,293.82809949998045,293.2022923999757,,,,,Shuai,001,2025-03-10_21h05.36.509,stroop,2024.2.4,60.118553784455635,2025-03-10 21h05.51.201030 -0700,
test,inconsistent,29,green,blue,word,z,800,2000,60,1,1,z,1,0.7083636000170372,None,1,1,60,28,293.82809949998045,,,,,,,,,293.60617389998515,293.82809949998045,293.82809949998045,293.82809949998045,293.82809949998045,293.9018378999899,293.9018378999899,294.55291099997703,z,1,0.7083636000170372,None,2.3262377642009553,294.55372899997747,294.56864620000124,297.3433259000012,296.8693217999826,,,,,Shuai,001,2025-03-10_21h05.36.509,stroop,2024.2.4,60.118553784455635,2025-03-10 21h05.51.201030 -0700,
test,inconsistent,30,blue,red,word,z,800,2000,61,2,1,z,1,0.6578773000219371,None,1,2,61,29,297.3433259000012,,,,,,,,,297.11443809999037,297.3433259000012,297.3433259000012,297.3433259000012,297.3433259000012,297.58570479997434,297.58570479997434,298.00238329998683,z,1,0.6578773000219371,None,3.0668292446634173,298.003118099994,298.0183630999818,301.64382479997585,301.05285219999496,,,,,Shuai,001,2025-03-10_21h05.36.509,stroop,2024.2.4,60.118553784455635,2025-03-10 21h05.51.201030 -0700,
test,consistent,51,red,red,word,m,800,2000,62,3,1,m,1,0.6230768999957945,None,1,3,62,50,301.64382479997585,,,,,,,,,301.34699609997915,301.64382479997585,301.64382479997585,301.64382479997585,301.64382479997585,301.7693012999953,301.7693012999953,302.26964519999456,m,1,0.6230768999957945,None,1.6315029048700471,302.27058959999704,302.28600659998483,304.5397568999906,303.8870925999945,,,,,Shuai,001,2025-03-10_21h05.36.509,stroop,2024.2.4,60.118553784455635,2025-03-10 21h05.51.201030 -0700,
test,inconsistent,6,red,yellow,word,z,800,2000,63,4,1,z,1,0.6318489999976009,None,1,4,63,5,304.5397568999906,,,,,,,,,304.236897099996,304.5397568999906,304.5397568999906,304.5397568999906,304.5397568999906,304.60289069998544,304.60289069998544,305.18672259998857,z,1,0.6318489999976009,None,2.866122835536948,305.1879224999866,305.2027813999739,308.5448734999809,308.0534071000002,,,,,Shuai,001,2025-03-10_21h05.36.509,stroop,2024.2.4,60.118553784455635,2025-03-10 21h05.51.201030 -0700,
test,inconsistent,56,green,red,word,z,800,2000,64,5,1,z,1,0.7545282999926712,None,1,5,64,55,308.5448734999809,,,,,,,,,308.3808531999821,308.5448734999809,308.5448734999809,308.5448734999809,308.5448734999809,308.7700497999904,308.7700497999904,309.3039002000005,z,1,0.7545282999926712,None,1.0919762000740143,309.3046548999846,309.3200104999996,310.81867199999397,310.38714969999273,,,,,Shuai,001,2025-03-10_21h05.36.509,stroop,2024.2.4,60.118553784455635,2025-03-10 21h05.51.201030 -0700,
test,inconsistent,24,blue,green,word,z,800,2000,65,6,1,z,1,0.7510029000113718,None,1,6,65,23,310.81867199999397,,,,,,,,,310.67263729998376,310.81867199999397,310.81867199999397,310.81867199999397,310.81867199999397,311.0866099999985,311.0866099999985,311.571203599975,z,1,0.7510029000113718,None,2.1875611004966498,311.5719028999738,311.5869446999859,314.2876236999873,313.7543273999763,,,,,Shuai,001,2025-03-10_21h05.36.509,stroop,2024.2.4,60.118553784455635,2025-03-10 21h05.51.201030 -0700,
test,inconsistent,4,red,green,word,z,800,2000,66,7,1,z,1,0.6887640999921132,None,1,7,66,3,314.2876236999873,,,,,,,,,313.98775249999017,314.2876236999873,314.2876236999873,314.2876236999873,314.2876236999873,314.47082639997825,314.47082639997825,314.98802629997954,z,1,0.6887640999921132,None,1.6533456087737821,314.9891256999981,315.0041167999734,317.3033035999979,316.6379985999956,,,,,Shuai,001,2025-03-10_21h05.36.509,stroop,2024.2.4,60.118553784455635,2025-03-10 21h05.51.201030 -0700,
test,inconsistent,32,orange,green,word,z,800,2000,67,8,1,z,1,0.5818803999864031,None,1,8,67,31,317.3033035999979,,,,,,,,,317.00730089997523,317.3033035999979,317.3033035999979,317.3033035999979,317.3033035999979,317.3541980999871,317.3541980999871,317.8883406999812,z,1,0.5818803999864031,None,4.228271831883177,317.8890485999873,317.90432549998513,322.55117899997276,322.10509579998325,,,,,Shuai,001,2025-03-10_21h05.36.509,stroop,2024.2.4,60.118553784455635,2025-03-10 21h05.51.201030 -0700,
test,consistent,28,yellow,yellow,word,m,800,2000,68,9,1,m,1,0.9498741000134032,None,1,9,68,27,322.55117899997276,,,,,,,,,322.4504678999947,322.55117899997276,322.55117899997276,,322.55117899997276,322.80522549999296,322.80522549999296,323.50611129999743,m,1,0.9498741000134032,None,1.56111009873643,323.50705819998984,323.5212543999951,325.65043939999305,325.05562829997507,,,,,Shuai,001,2025-03-10_21h05.36.509,stroop,2024.2.4,60.118553784455635,2025-03-10 21h05.51.201030 -0700,
test,consistent,7,green,green,word,m,800,2000,69,10,1,m,1,0.7648305000038818,None,1,10,69,6,325.65043939999305,,,,,,,,,325.43084339998313,325.65043939999305,325.65043939999305,325.65043939999305,325.65043939999305,325.77145759999985,325.77145759999985,326.42216309998184,m,1,0.7648305000038818,None,4.7224256887355835,326.4230081999849,326.4385172999755,331.5866406999994,331.13959819998126,,,,,Shuai,001,2025-03-10_21h05.36.509,stroop,2024.2.4,60.118553784455635,2025-03-10 21h05.51.201030 -0700,
test,inconsistent,52,red,green,word,z,800,2000,70,11,1,z,1,0.7390263999986928,None,1,11,70,51,331.5866406999994,,,,,,,,,331.3646935999859,331.5866406999994,331.5866406999994,331.5866406999994,331.5866406999994,331.85590249998495,331.85590249998495,332.3398930999974,z,1,0.7390263999986928,None,1.9790160789111653,332.34074089999194,332.3557693999901,334.7321894999768,334.30660839998745,,,,,Shuai,001,2025-03-10_21h05.36.509,stroop,2024.2.4,60.118553784455635,2025-03-10 21h05.51.201030 -0700,
test,inconsistent,44,green,red,word,z,800,2000,71,12,1,z,1,0.7768335999862757,None,1,12,71,43,334.7321894999768,,,,,,,,,334.5112079999817,334.7321894999768,334.7321894999768,334.7321894999768,334.7321894999768,335.0228203999868,335.0228203999868,335.52338639998925,z,1,0.7768335999862757,None,2.0491727571017844,335.52423549999367,335.5395716999774,337.9271206999838,337.5566850999894,,,,,Shuai,001,2025-03-10_21h05.36.509,stroop,2024.2.4,60.118553784455635,2025-03-10 21h05.51.201030 -0700,
test,consistent,36,red,red,word,m,800,2000,72,13,1,m,1,1.0032423000084236,None,1,13,72,35,337.9271206999838,,,,,,,,,337.8683589999855,337.9271206999838,337.9271206999838,338.92451029998483,337.9271206999838,338.27326299998094,338.27326299998094,338.94004649997805,m,1,1.0032423000084236,None,3.985236663247857,338.9409096999734,338.9562311999907,343.49563389999093,342.923856599984,,,,,Shuai,001,2025-03-10_21h05.36.509,stroop,2024.2.4,60.118553784455635,2025-03-10 21h05.51.201030 -0700,
test,inconsistent,26,green,yellow,word,z,800,2000,73,14,1,z,1,0.6682561000052374,None,1,14,73,25,343.49563389999093,,,,,,,,,343.27259189999313,343.49563389999093,343.49563389999093,343.49563389999093,343.49563389999093,343.623428299994,343.623428299994,344.1740267999994,z,1,0.6682561000052374,None,3.5330197931080334,344.17484759999206,344.19045789999655,348.19860569998855,347.6908652999846,,,,,Shuai,001,2025-03-10_21h05.36.509,stroop,2024.2.4,60.118553784455635,2025-03-10 21h05.51.201030 -0700,
test,inconsistent,2,yellow,green,word,z,800,2000,74,15,1,z,1,0.7706807999929879,None,1,15,74,1,348.19860569998855,,,,,,,,,347.89988049998647,348.19860569998855,348.19860569998855,348.19860569998855,348.19860569998855,348.4069270999753,348.4069270999753,348.9747126000002,z,1,0.7706807999929879,None,1.4662892244511219,348.9754098999838,348.9905289999733,351.06687539999257,350.42497179997736,,,,,Shuai,001,2025-03-10_21h05.36.509,stroop,2024.2.4,60.118553784455635,2025-03-10 21h05.51.201030 -0700,
test,inconsistent,17,yellow,green,word,z,800,2000,75,16,1,z,1,0.6658812000241596,None,1,16,75,16,351.06687539999257,,,,,,,,,350.83111809997354,351.06687539999257,351.06687539999257,351.06687539999257,351.06687539999257,351.1407779000001,351.1407779000001,351.7416182999732,z,1,0.6658812000241596,None,4.915014259385664,351.7425714999845,351.7575972999912,357.24598929999047,356.64170119998744,,,,,Shuai,001,2025-03-10_21h05.36.509,stroop,2024.2.4,60.118553784455635,2025-03-10 21h05.51.201030 -0700,
test,inconsistent,59,yellow,green,word,z,800,2000,76,17,1,z,1,1.1888647999730892,None,1,17,76,58,357.24598929999047,,,,,,,,,356.94366939997417,357.24598929999047,357.24598929999047,357.24598929999047,357.24598929999047,357.34152899999754,357.34152899999754,358.441711499996,z,1,1.1888647999730892,None,3.718727386710229,358.4425787999935,358.45778999998583,362.75416669997503,362.1588107999996,,,,,Shuai,001,2025-03-10_21h05.36.509,stroop,2024.2.4,60.118553784455635,2025-03-10 21h05.51.201030 -0700,
test,inconsistent,16,red,green,word,z,800,2000,77,18,1,z,1,0.7386301000078674,None,1,18,77,15,362.75416669997503,,,,,,,,,362.4537565999781,362.75416669997503,362.75416669997503,362.75416669997503,362.75416669997503,362.87538279997534,362.87538279997534,363.5089063999767,z,1,0.7386301000078674,None,5.96189031296092,363.5097687999951,363.52542699998594,370.0140950999921,369.45976379999775,,,,,Shuai,001,2025-03-10_21h05.36.509,stroop,2024.2.4,60.118553784455635,2025-03-10 21h05.51.201030 -0700,
test,inconsistent,5,orange,blue,word,z,800,2000,78,19,1,z,1,0.7119172000093386,None,1,19,78,4,370.0140950999921,,,,,,,,,369.7818082999729,370.0140950999921,370.0140950999921,370.0140950999921,370.0140950999921,370.1762515999726,370.1762515999726,370.74346519997925,z,1,0.7119172000093386,None,5.928931412025399,370.7441522000008,370.7596864999796,377.2363285999745,376.6607800999773,,,,,Shuai,001,2025-03-10_21h05.36.509,stroop,2024.2.4,60.118553784455635,2025-03-10 21h05.51.201030 -0700,
test,consistent,18,red,red,word,m,800,2000,79,20,1,m,1,0.6677364999777637,None,1,20,79,17,377.2363285999745,,,,,,,,,376.94080229999963,377.2363285999745,377.2363285999745,377.2363285999745,377.2363285999745,377.376803799998,377.376803799998,377.91087279998465,m,1,0.6677364999777637,None,3.0715927823970697,377.9117087999766,377.927146299975,381.73769869998796,380.9776120999886,,,,,Shuai,001,2025-03-10_21h05.36.509,stroop,2024.2.4,60.118553784455635,2025-03-10 21h05.51.201030 -0700,
test,consistent,12,yellow,yellow,word,m,800,2000,80,21,1,m,1,0.6802642999973614,None,1,21,80,11,381.73769869998796,,,,,,,,,381.3376489999937,381.73769869998796,381.73769869998796,381.73769869998796,381.73769869998796,381.7406997999933,381.7406997999933,382.4279791000008,m,1,0.6802642999973614,None,1.6796087146696927,382.428935599979,382.4443086999818,384.7511875999917,384.0946881999844,,,,,Shuai,001,2025-03-10_21h05.36.509,stroop,2024.2.4,60.118553784455635,2025-03-10 21h05.51.201030 -0700,
test,inconsistent,50,yellow,green,word,z,800,2000,81,22,1,None,0,,,1,22,81,49,384.7511875999917,,,,,,,,,384.5157364999759,384.7511875999917,384.7511875999917,384.7511875999917,384.7511875999917,384.81115659998613,384.81115659998613,389.0949131999805,None,0,,,1.5126668186008003,389.0955745999818,389.1113277999975,391.0096243000007,390.5952713000006,389.1113277999975,,,,Shuai,001,2025-03-10_21h05.36.509,stroop,2024.2.4,60.118553784455635,2025-03-10 21h05.51.201030 -0700,
test,consistent,45,red,red,word,m,800,2000,82,23,1,m,1,0.8090546000166796,None,1,23,82,44,391.0096243000007,,,,,,,,,390.9086260999902,391.0096243000007,391.0096243000007,,391.0096243000007,391.29524619999574,391.29524619999574,391.82923379997374,m,1,0.8090546000166796,None,3.87526411834576,391.8300015999994,391.84498679998796,396.1526001999737,395.6958901999751,,,,,Shuai,001,2025-03-10_21h05.36.509,stroop,2024.2.4,60.118553784455635,2025-03-10 21h05.51.201030 -0700,
test,inconsistent,19,green,red,word,z,800,2000,83,24,1,z,1,1.0277159000106622,None,1,24,83,18,396.1526001999737,,,,,,,,,396.0054893999768,396.1526001999737,396.1526001999737,396.1526001999737,396.1526001999737,396.4119967999868,396.4119967999868,397.1960309999995,z,1,1.0277159000106622,None,5.039050779475572,397.19692289998056,397.21203589998186,402.7626265999861,402.229726199992,,,,,Shuai,001,2025-03-10_21h05.36.509,stroop,2024.2.4,60.118553784455635,2025-03-10 21h05.51.201030 -0700,
test,inconsistent,3,blue,red,word,z,800,2000,84,25,1,z,1,1.3700964000017848,None,1,25,84,2,402.7626265999861,,,,,,,,,402.4655538999941,402.7626265999861,402.7626265999861,402.7626265999861,402.7626265999861,402.9291136999964,402.9291136999964,404.1468033999845,z,1,1.3700964000017848,None,5.870519334090045,404.14753359998576,404.16277239998453,410.64657509999233,410.01379439997254,,,,,Shuai,001,2025-03-10_21h05.36.509,stroop,2024.2.4,60.118553784455635,2025-03-10 21h05.51.201030 -0700,
test,consistent,38,blue,blue,word,m,800,2000,85,26,1,m,1,0.6514595999906305,None,1,26,85,37,410.64657509999233,,,,,,,,,410.4259830999945,410.64657509999233,410.64657509999233,410.64657509999233,410.64657509999233,410.7299920999794,410.7299920999794,411.31428459999734,m,1,0.6514595999906305,None,5.089168230061492,411.31507989999955,411.3299699999916,417.02716819997295,416.3979218999739,,,,,Shuai,001,2025-03-10_21h05.36.509,stroop,2024.2.4,60.118553784455635,2025-03-10 21h05.51.201030 -0700,
test,consistent,43,green,green,word,m,800,2000,86,27,1,m,1,0.8569323999981862,None,1,27,86,42,417.02716819997295,,,,,,,,,416.7244365999941,417.02716819997295,417.02716819997295,417.02716819997295,417.02716819997295,417.11393599997973,417.11393599997973,417.89804409997305,m,1,0.8569323999981862,None,2.4170818449397093,417.8992201999936,417.9138541999855,420.870712599979,420.31461049997597,,,,,Shuai,001,2025-03-10_21h05.36.509,stroop,2024.2.4,60.118553784455635,2025-03-10 21h05.51.201030 -0700,
test,inconsistent,25,red,blue,word,z,800,2000,87,28,1,z,1,0.8949888999923132,None,1,28,87,24,420.870712599979,,,,,,,,,420.65300159997423,420.870712599979,420.870712599979,420.870712599979,420.870712599979,421.0147449999931,421.0147449999931,421.7818315999757,z,1,0.8949888999923132,None,4.114246714731242,421.7825185999973,421.79791929997737,426.4118881999748,425.88218879999476,,,,,Shuai,001,2025-03-10_21h05.36.509,stroop,2024.2.4,60.118553784455635,2025-03-10 21h05.51.201030 -0700,
test,inconsistent,15,yellow,red,word,z,800,2000,88,29,1,z,1,0.6303937000047881,None,1,29,88,14,426.4118881999748,,,,,,,,,426.1790528999991,426.4118881999748,426.4118881999748,426.4118881999748,426.4118881999748,426.59849799997755,426.59849799997755,427.049165799981,z,1,0.6303937000047881,None,1.1570388463891175,427.05003469999065,427.06479299999774,428.79338959997403,428.19934799999464,,,,,Shuai,001,2025-03-10_21h05.36.509,stroop,2024.2.4,60.118553784455635,2025-03-10 21h05.51.201030 -0700,
test,consistent,41,green,green,word,m,800,2000,89,30,1,m,1,0.7046040999994148,None,1,30,89,40,428.79338959997403,,,,,,,,,428.4987432999769,428.79338959997403,428.79338959997403,428.79338959997403,428.79338959997403,428.9149666999874,428.9149666999874,429.4997618999914,m,1,0.7046040999994148,None,4.1671570358077314,429.5006247999845,429.515356399992,434.33173799997894,433.66618419997394,,,,,Shuai,001,2025-03-10_21h05.36.509,stroop,2024.2.4,60.118553784455635,2025-03-10 21h05.51.201030 -0700,
test,inconsistent,31,yellow,red,word,z,800,2000,90,31,1,z,1,0.8545359000272583,None,1,31,90,30,434.33173799997894,,,,,,,,,434.0329479999782,434.33173799997894,434.33173799997894,434.33173799997894,434.33173799997894,434.3659331999952,434.3659331999952,435.1999708999938,z,1,0.8545359000272583,None,3.186351412205276,435.2007148999837,435.21601489998284,438.85144619998755,438.3831819999905,,,,,Shuai,001,2025-03-10_21h05.36.509,stroop,2024.2.4,60.118553784455635,2025-03-10 21h05.51.201030 -0700,
test,consistent,54,green,green,word,m,800,2000,91,32,1,m,1,0.7857816000177991,None,1,32,91,53,438.85144619998755,,,,,,,,,438.7520386999822,438.85144619998755,438.85144619998755,,438.85144619998755,439.0828638999956,439.0828638999956,439.6508063999936,m,1,0.7857816000177991,None,5.943284599305654,439.65186879999237,439.6664942999778,446.3074338999868,445.58372319999035,,,,,Shuai,001,2025-03-10_21h05.36.509,stroop,2024.2.4,60.118553784455635,2025-03-10 21h05.51.201030 -0700,
test,inconsistent,48,yellow,red,word,z,800,2000,92,33,1,z,1,0.7538913000025786,None,1,33,92,47,446.3074338999868,,,,,,,,,446.0126889999956,446.3074338999868,446.3074338999868,446.3074338999868,446.3074338999868,446.3105339999893,446.3105339999893,447.06736389998696,z,1,0.7538913000025786,None,4.235866806990998,447.0681763999746,447.0832808999985,451.86788669999805,451.30110399998375,,,,,Shuai,001,2025-03-10_21h05.36.509,stroop,2024.2.4,60.118553784455635,2025-03-10 21h05.51.201030 -0700,
test,inconsistent,42,green,yellow,word,z,800,2000,93,34,1,z,1,0.7393742999993265,None,1,34,93,41,451.86788669999805,,,,,,,,,451.6497424999834,451.86788669999805,451.86788669999805,451.86788669999805,451.86788669999805,452.0183477999817,452.0183477999817,452.6185085999896,z,1,0.7393742999993265,None,5.7449136196586394,452.6193793999846,452.6342688000004,458.9528504999762,458.3516646999924,,,,,Shuai,001,2025-03-10_21h05.36.509,stroop,2024.2.4,60.118553784455635,2025-03-10 21h05.51.201030 -0700,
test,inconsistent,11,green,red,word,z,800,2000,94,35,1,z,1,0.6992331999936141,None,1,35,94,10,458.9528504999762,,,,,,,,,458.65062019997276,458.9528504999762,458.9528504999762,458.9528504999762,458.9528504999762,459.0517032999778,459.0517032999778,459.6685373999935,z,1,0.6992331999936141,None,4.187583655070657,459.669393499993,459.68481869998504,464.58640719999676,463.8523629999836,,,,,Shuai,001,2025-03-10_21h05.36.509,stroop,2024.2.4,60.118553784455635,2025-03-10 21h05.51.201030 -0700,
test,inconsistent,22,red,yellow,word,z,800,2000,95,36,1,z,1,0.6980562999960966,None,1,36,95,21,464.58640719999676,,,,,,,,,464.18971149998833,464.58640719999676,464.58640719999676,464.58640719999676,464.58640719999676,464.58943019999424,464.58943019999424,465.28593980000005,z,1,0.6980562999960966,None,3.0901929142350046,465.28683109997655,465.30227709998144,468.94551339998725,468.36978419998195,,,,,Shuai,001,2025-03-10_21h05.36.509,stroop,2024.2.4,60.118553784455635,2025-03-10 21h05.51.201030 -0700,
test,inconsistent,37,red,green,word,z,800,2000,96,37,1,z,1,0.7571909999824129,None,1,37,96,36,468.94551339998725,,,,,,,,,468.86212589999195,468.94551339998725,468.94551339998725,,468.94551339998725,469.06962649998604,469.06962649998604,469.7201975999924,z,1,0.7571909999824129,None,4.485554786226108,469.7213537999778,469.73583489999874,474.81179039998096,474.203391499992,,,,,Shuai,001,2025-03-10_21h05.36.509,stroop,2024.2.4,60.118553784455635,2025-03-10 21h05.51.201030 -0700,
test,consistent,57,yellow,yellow,word,m,800,2000,97,38,1,m,1,0.8292673999967519,None,1,38,97,56,474.81179039998096,,,,,,,,,474.51291439999477,474.81179039998096,474.81179039998096,474.81179039998096,474.81179039998096,474.9197406999883,474.9197406999883,475.6538694999763,m,1,0.8292673999967519,None,1.6319425005679409,475.6546473999915,475.6697877999977,477.92456359998323,477.2703322999878,,,,,Shuai,001,2025-03-10_21h05.36.509,stroop,2024.2.4,60.118553784455635,2025-03-10 21h05.51.201030 -0700,
test,consistent,40,yellow,yellow,word,m,800,2000,98,39,1,m,1,0.6517351999937091,None,1,39,98,39,477.92456359998323,,,,,,,,,477.62612559998524,477.92456359998323,477.92456359998323,477.92456359998323,477.92456359998323,477.9699675999873,477.9699675999873,478.5876121999754,m,1,0.6517351999937091,None,3.8106832721086317,478.58859059997485,478.6036037999729,482.8932663000014,482.38746969998465,,,,,Shuai,001,2025-03-10_21h05.36.509,stroop,2024.2.4,60.118553784455635,2025-03-10 21h05.51.201030 -0700,
test,inconsistent,33,yellow,green,word,z,800,2000,99,40,1,z,1,0.7197541999921668,None,1,40,99,32,482.8932663000014,,,,,,,,,482.7510037999891,482.8932663000014,482.8932663000014,482.8932663000014,482.8932663000014,483.08728459998383,483.08728459998383,483.6216259999783,z,1,0.7197541999921668,None,3.599569486272046,483.62239889998455,483.6374801999773,487.6999889999861,487.20470259999274,,,,,Shuai,001,2025-03-10_21h05.36.509,stroop,2024.2.4,60.118553784455635,2025-03-10 21h05.51.201030 -0700,
test,inconsistent,58,yellow,red,word,z,800,2000,100,41,1,z,1,0.6743859999987762,None,1,41,100,57,487.6999889999861,,,,,,,,,487.39810329998727,487.6999889999861,487.6999889999861,487.6999889999861,487.6999889999861,487.92131599999266,487.92131599999266,488.38864219997777,z,1,0.6743859999987762,None,4.791713183035878,488.3895370999817,488.4042104999826,493.81891209998867,493.1721730999998,,,,,Shuai,001,2025-03-10_21h05.36.509,stroop,2024.2.4,60.118553784455635,2025-03-10 21h05.51.201030 -0700,
test,consistent,46,yellow,yellow,word,m,800,2000,101,42,1,m,1,0.6599506000056863,None,1,42,101,45,493.81891209998867,,,,,,,,,493.51468439999735,493.81891209998867,493.81891209998867,493.81891209998867,493.81891209998867,493.88854449999053,493.88854449999053,494.4889422999986,m,1,0.6599506000056863,None,5.528575546186668,494.4898074999801,494.50469449997763,500.4406563999946,500.00597199998447,,,,,Shuai,001,2025-03-10_21h05.36.509,stroop,2024.2.4,60.118553784455635,2025-03-10 21h05.51.201030 -0700,
test,consistent,35,red,red,word,m,800,2000,102,43,1,m,1,0.7956352999899536,None,1,43,102,34,500.4406563999946,,,,,,,,,500.33936439998797,500.4406563999946,500.4406563999946,,500.4406563999946,500.722543699987,500.722543699987,501.24015449997387,m,1,0.7956352999899536,None,1.514654274751043,501.2410330999992,501.2555905999907,503.4299855999998,502.7397756999999,,,,,Shuai,001,2025-03-10_21h05.36.509,stroop,2024.2.4,60.118553784455635,2025-03-10 21h05.51.201030 -0700,
test,inconsistent,55,green,yellow,word,z,800,2000,103,44,1,z,1,0.7772730000142474,None,1,44,103,54,503.4299855999998,,,,,,,,,503.13219579998986,503.4299855999998,503.4299855999998,503.4299855999998,503.4299855999998,503.43341089997557,503.43341089997557,504.22277749999193,z,1,0.7772730000142474,None,4.845393653279186,504.22360509997816,504.23911779999617,509.5781357999949,509.05634269997245,,,,,Shuai,001,2025-03-10_21h05.36.509,stroop,2024.2.4,60.118553784455635,2025-03-10 21h05.51.201030 -0700,
test,inconsistent,20,red,green,word,z,800,2000,104,45,1,z,1,1.1525630000105593,None,1,45,104,19,509.5781357999949,,,,,,,,,509.3556943000003,509.5781357999949,509.5781357999949,509.5781357999949,509.5781357999949,509.75669539999217,509.75669539999217,510.7404128999915,z,1,1.1525630000105593,None,2.358908023476673,510.741245799989,510.75635289997444,513.6221586999891,513.090392699989,,,,,Shuai,001,2025-03-10_21h05.36.509,stroop,2024.2.4,60.118553784455635,2025-03-10 21h05.51.201030 -0700,
test,inconsistent,8,black,yellow,word,z,800,2000,105,46,1,z,1,0.7926636000047438,None,1,46,105,7,513.6221586999891,,,,,,,,,513.3240672999818,513.6221586999891,513.6221586999891,513.6221586999891,513.6221586999891,513.7901739999943,513.7901739999943,514.4242980999989,z,1,0.7926636000047438,None,5.340684178826925,514.4254288999946,514.4403046999942,520.4383581999864,519.7582279999915,,,,,Shuai,001,2025-03-10_21h05.36.509,stroop,2024.2.4,60.118553784455635,2025-03-10 21h05.51.201030 -0700,
test,inconsistent,10,green,yellow,word,z,800,2000,106,47,1,z,1,0.855119099986041,None,1,47,106,9,520.4383581999864,,,,,,,,,520.1364222999837,520.4383581999864,520.4383581999864,520.4383581999864,520.4383581999864,520.4442253999878,520.4442253999878,521.308272299997,z,1,0.855119099986041,None,2.2808163254697287,521.309314299986,521.3239699999976,524.1983867999807,523.5747961999732,,,,,Shuai,001,2025-03-10_21h05.36.509,stroop,2024.2.4,60.118553784455635,2025-03-10 21h05.51.201030 -0700,
test,consistent,47,blue,blue,word,m,800,2000,107,48,1,m,1,0.9854706000187434,None,1,48,107,46,524.1983867999807,,,,,,,,,523.9004218999762,524.1983867999807,524.1983867999807,524.1983867999807,524.1983867999807,524.2743355999992,524.2743355999992,525.1919256999972,m,1,0.9854706000187434,None,1.419939979370899,525.1927353999927,525.2077055999835,527.4281539999938,526.6083285999775,,,,,Shuai,001,2025-03-10_21h05.36.509,stroop,2024.2.4,60.118553784455635,2025-03-10 21h05.51.201030 -0700,
test,consistent,34,green,green,word,m,800,2000,108,49,1,m,1,0.8176188000070397,None,1,49,108,33,527.4281539999938,,,,,,,,,527.0321588999941,527.4281539999938,527.4281539999938,527.4281539999938,527.4281539999938,527.4313407999871,527.4313407999871,528.2588163999899,m,1,0.8176188000070397,None,3.411202014365015,528.2596189999895,528.2745885999757,532.4653405999998,531.6591310999938,,,,,Shuai,001,2025-03-10_21h05.36.509,stroop,2024.2.4,60.118553784455635,2025-03-10 21h05.51.201030 -0700,
test,inconsistent,39,red,yellow,word,z,800,2000,109,50,1,z,1,0.899446600000374,None,1,50,109,38,532.4653405999998,,,,,,,,,532.1662186999747,532.4653405999998,532.4653405999998,532.4653405999998,532.4653405999998,532.468341699976,532.468341699976,533.3764187999768,z,1,0.899446600000374,None,1.9784890260731833,533.3772409999801,533.3922182999959,535.8986020999728,535.3427235999843,,,,,Shuai,001,2025-03-10_21h05.36.509,stroop,2024.2.4,60.118553784455635,2025-03-10 21h05.51.201030 -0700,
test,consistent,23,green,green,word,m,800,2000,110,51,1,m,1,1.0394588000199292,None,1,51,110,22,535.8986020999728,,,,,,,,,535.6639147999813,535.8986020999728,535.8986020999728,535.8986020999728,535.8986020999728,536.0593874999904,536.0593874999904,536.9433197999897,m,1,1.0394588000199292,None,5.846660114425566,536.9441617999983,536.9593989999848,543.1693023999978,542.7765442999953,,,,,Shuai,001,2025-03-10_21h05.36.509,stroop,2024.2.4,60.118553784455635,2025-03-10 21h05.51.201030 -0700,
test,consistent,49,yellow,yellow,word,m,800,2000,111,52,1,z,0,1.731726099998923,None,1,52,111,48,543.1693023999978,,,,,,,,,543.069162699976,543.1693023999978,543.1693023999978,544.2650131999981,543.1693023999978,543.4767955999996,543.4767955999996,544.9106635999924,z,0,1.731726099998923,None,3.7177861367606044,544.9114210999978,544.9268920999893,549.3108385999803,548.6276968999882,,,,,Shuai,001,2025-03-10_21h05.36.509,stroop,2024.2.4,60.118553784455635,2025-03-10 21h05.51.201030 -0700,
test,inconsistent,27,green,red,word,z,800,2000,112,53,1,z,1,0.8939384999976028,None,1,53,112,26,549.3108385999803,,,,,,,,,549.0149601000012,549.3108385999803,549.3108385999803,549.3108385999803,549.3108385999803,549.3141352999955,549.3141352999955,550.2113982999872,z,1,0.8939384999976028,None,3.235032725459878,550.2122677000007,550.2273625999806,553.9975291999872,553.4445034999808,,,,,Shuai,001,2025-03-10_21h05.36.509,stroop,2024.2.4,60.118553784455635,2025-03-10 21h05.51.201030 -0700,
test,inconsistent,53,red,yellow,word,z,800,2000,113,54,1,z,1,0.7461857000016607,None,1,54,113,52,553.9975291999872,,,,,,,,,553.8502881999884,553.9975291999872,553.9975291999872,553.9975291999872,553.9975291999872,554.1443249000004,554.1443249000004,554.7451276999782,z,1,0.7461857000016607,None,1.958529353816982,554.7458749999932,554.7605684999726,557.0742927999818,556.6952157999913,,,,,Shuai,001,2025-03-10_21h05.36.509,stroop,2024.2.4,60.118553784455635,2025-03-10 21h05.51.201030 -0700,
test,inconsistent,9,red,blue,word,z,800,2000,114,55,1,z,1,0.6652820000017527,None,1,55,114,8,557.0742927999818,,,,,,,,,556.9038560999907,557.0742927999818,557.0742927999818,557.0742927999818,557.0742927999818,557.4112461999757,557.4112461999757,557.7451785999874,z,1,0.6652820000017527,None,2.1163722137018,557.7462420999946,557.7613963999902,560.2267973999842,559.8620033999905,,,,,Shuai,001,2025-03-10_21h05.36.509,stroop,2024.2.4,60.118553784455635,2025-03-10 21h05.51.201030 -0700,
test,inconsistent,21,black,yellow,word,z,800,2000,115,56,1,z,1,0.7819764000014402,None,1,56,115,20,560.2267973999842,,,,,,,,,560.1290909999807,560.2267973999842,560.2267973999842,,560.2267973999842,560.5615512999939,560.5615512999939,561.0122170999821,z,1,0.7819764000014402,None,4.775445013422871,561.0132395999972,561.0278556999983,566.4253120999783,565.7790624999907,,,,,Shuai,001,2025-03-10_21h05.36.509,stroop,2024.2.4,60.118553784455635,2025-03-10 21h05.51.201030 -0700,
test,inconsistent,14,yellow,blue,word,z,800,2000,116,57,1,z,1,0.5954855999734718,None,1,57,116,13,566.4253120999783,,,,,,,,,566.1267807999975,566.4253120999783,566.4253120999783,566.4253120999783,566.4253120999783,566.4785799999954,566.4785799999954,567.0287931999774,z,1,0.5954855999734718,None,5.341700978654729,567.0297624999948,567.0451484999794,573.0591390999907,572.3632270999951,,,,,Shuai,001,2025-03-10_21h05.36.509,stroop,2024.2.4,60.118553784455635,2025-03-10 21h05.51.201030 -0700,
test,inconsistent,13,purple,red,word,z,800,2000,117,58,1,z,1,0.733544000016991,None,1,58,117,12,573.0591390999907,,,,,,,,,572.7583742999996,573.0591390999907,573.0591390999907,573.0591390999907,573.0591390999907,573.0623755999841,573.0623755999841,573.7966511999839,z,1,0.733544000016991,None,5.316242857748836,573.7974870999751,573.8127624999906,579.8320631999813,579.0974248999846,,,,,Shuai,001,2025-03-10_21h05.36.509,stroop,2024.2.4,60.118553784455635,2025-03-10 21h05.51.201030 -0700,
test,inconsistent,25,red,blue,word,z,800,2000,118,0,2,z,1,0.7699720000091475,None,2,0,118,24,579.8320631999813,,,,,,,,,579.4337503999996,579.8320631999813,579.8320631999813,579.8320631999813,579.8320631999813,579.8348036999814,579.8348036999814,580.6144531999889,z,1,0.7699720000091475,None,4.418475820162009,580.6153507999843,580.6301101999998,585.6961072999984,585.0310332999798,,,,,Shuai,001,2025-03-10_21h05.36.509,stroop,2024.2.4,60.118553784455635,2025-03-10 21h05.51.201030 -0700,
test,inconsistent,59,yellow,green,word,z,800,2000,119,1,2,z,1,0.704071499989368,None,2,1,119,58,585.6961072999984,,,,,,,,,585.4356096999836,585.6961072999984,585.6961072999984,585.6961072999984,585.6961072999984,585.7472567999794,585.7472567999794,586.4147368999838,z,1,0.704071499989368,None,5.360050494964353,586.4155257999955,586.4308601999946,592.4103029999824,591.7648148000007,,,,,Shuai,001,2025-03-10_21h05.36.509,stroop,2024.2.4,60.118553784455635,2025-03-10 21h05.51.201030 -0700,
test,inconsistent,4,red,green,word,z,800,2000,120,2,2,z,1,0.7825805000029504,None,2,2,120,3,592.4103029999824,,,,,,,,,592.1140185999975,592.4103029999824,592.4103029999824,592.4103029999824,592.4103029999824,592.4645351999789,592.4645351999789,593.1989125999971,z,1,0.7825805000029504,None,5.977720331531677,593.1996944999846,593.2144179999887,599.7080458999844,599.1656796999741,,,,,Shuai,001,2025-03-10_21h05.36.509,stroop,2024.2.4,60.118553784455635,2025-03-10 21h05.51.201030 -0700,
test,inconsistent,10,green,yellow,word,z,800,2000,121,3,2,z,1,0.8626039000228047,None,2,3,121,9,599.7080458999844,,,,,,,,,599.5627714000002,599.7080458999844,599.7080458999844,599.7080458999844,599.7080458999844,599.8652023999894,599.8652023999894,600.5828080999781,z,1,0.8626039000228047,None,5.419839216056048,600.5836346999859,600.5987813999818,606.4911809999903,605.9999613999971,,,,,Shuai,001,2025-03-10_21h05.36.509,stroop,2024.2.4,60.118553784455635,2025-03-10 21h05.51.201030 -0700,
test,inconsistent,15,yellow,red,word,z,800,2000,122,4,2,z,1,0.6793168000003789,None,2,4,122,14,606.4911809999903,,,,,,,,,606.1921964999929,606.4911809999903,606.4911809999903,606.4911809999903,606.4911809999903,606.7161305999907,606.7161305999907,607.1835274999903,z,1,0.6793168000003789,None,2.5452205463981206,607.1843741999764,607.199621799984,610.2219855999865,609.7167588999728,,,,,Shuai,001,2025-03-10_21h05.36.509,stroop,2024.2.4,60.118553784455635,2025-03-10 21h05.51.201030 -0700,
test,inconsistent,21,black,yellow,word,z,800,2000,123,5,2,z,1,1.397030000021914,None,2,5,123,20,610.2219855999865,,,,,,,,,610.1249275000009,610.2219855999865,610.2219855999865,,610.2219855999865,610.433153799997,610.433153799997,611.6345842999872,z,1,1.397030000021914,None,4.365258445491357,611.6353263999918,611.6498530999816,616.6622373999853,615.98380799999,,,,,Shuai,001,2025-03-10_21h05.36.509,stroop,2024.2.4,60.118553784455635,2025-03-10 21h05.51.201030 -0700,
test,consistent,7,green,green,word,m,800,2000,124,6,2,m,1,0.7645614000211935,None,2,6,124,6,616.6622373999853,,,,,,,,,616.3627315999765,616.6622373999853,616.6622373999853,616.6622373999853,616.6622373999853,616.6839322999876,616.6839322999876,617.434669499984,m,1,0.7645614000211935,None,2.0445368369018104,617.4354969999986,617.4505877999763,619.9370828999963,619.4677565999737,,,,,Shuai,001,2025-03-10_21h05.36.509,stroop,2024.2.4,60.118553784455635,2025-03-10 21h05.51.201030 -0700,
test,consistent,28,yellow,yellow,word,m,800,2000,125,7,2,m,1,0.7654998999787495,None,2,7,125,27,619.9370828999963,,,,,,,,,619.7907429999905,619.9370828999963,619.9370828999963,619.9370828999963,619.9370828999963,620.1841879999847,620.1841879999847,620.7180255999847,m,1,0.7654998999787495,None,3.254704708427753,620.7187354999769,620.7342150999757,624.3332094999787,623.9682935999881,,,,,Shuai,001,2025-03-10_21h05.36.509,stroop,2024.2.4,60.118553784455635,2025-03-10 21h05.51.201030 -0700,
test,inconsistent,13,purple,red,word,z,800,2000,126,8,2,z,1,0.6456316000258084,None,2,8,126,12,624.3332094999787,,,,,,,,,624.1654120999738,624.3332094999787,624.3332094999787,624.3332094999787,624.3332094999787,624.6844491999946,624.6844491999946,624.9850854999968,z,1,0.6456316000258084,None,1.3322439236440966,624.9859374999942,625.0013777999848,626.8881426999869,626.301803099981,,,,,Shuai,001,2025-03-10_21h05.36.509,stroop,2024.2.4,60.118553784455635,2025-03-10 21h05.51.201030 -0700,
test,inconsistent,8,black,yellow,word,z,800,2000,127,9,2,z,1,0.705358500010334,None,2,9,127,7,626.8881426999869,,,,,,,,,626.591824699979,626.8881426999869,626.8881426999869,626.8881426999869,626.8881426999869,627.018247799977,627.018247799977,627.6023529999948,z,1,0.705358500010334,None,4.735110808760148,627.6031924999843,627.6181197999977,633.0287175999838,632.3357413999911,,,,,Shuai,001,2025-03-10_21h05.36.509,stroop,2024.2.4,60.118553784455635,2025-03-10 21h05.51.201030 -0700,
test,consistent,43,green,green,word,m,800,2000,128,10,2,m,1,0.7871755999804009,None,2,10,128,42,633.0287175999838,,,,,,,,,632.7319749999733,633.0287175999838,633.0287175999838,633.0287175999838,633.0287175999838,633.0316659999953,633.0316659999953,633.8193186999997,m,1,0.7871755999804009,None,5.462083907924097,633.8200625999889,633.8351610999962,639.878659399983,639.2698769999843,,,,,Shuai,001,2025-03-10_21h05.36.509,stroop,2024.2.4,60.118553784455635,2025-03-10 21h05.51.201030 -0700,
test,inconsistent,42,green,yellow,word,z,800,2000,129,11,2,z,1,0.8644715000118595,None,2,11,129,41,639.878659399983,,,,,,,,,639.6538270999736,639.878659399983,639.878659399983,639.878659399983,639.878659399983,639.9861229999806,639.9861229999806,640.7529643999878,z,1,0.8644715000118595,None,2.5211793866443757,640.7537935999862,640.7690771999769,643.8864886999945,643.2700388999947,,,,,Shuai,001,2025-03-10_21h05.36.509,stroop,2024.2.4,60.118553784455635,2025-03-10 21h05.51.201030 -0700,
test,consistent,18,red,red,word,m,800,2000,130,12,2,m,1,0.7399248000001535,None,2,12,130,17,643.8864886999945,,,,,,,,,643.4850180999783,643.8864886999945,643.8864886999945,643.8864886999945,643.8864886999945,643.9864607999916,643.9864607999916,644.6365260999883,m,1,0.7399248000001535,None,3.722553495063048,644.6373571000004,644.6526329999906,648.869217599975,648.3543895999901,,,,,Shuai,001,2025-03-10_21h05.36.509,stroop,2024.2.4,60.118553784455635,2025-03-10 21h05.51.201030 -0700,
test,inconsistent,20,red,green,word,z,800,2000,131,13,2,z,1,0.8294837000139523,None,2,13,131,19,648.869217599975,,,,,,,,,648.7660955999745,648.869217599975,648.869217599975,,648.869217599975,649.0704993999971,649.0704993999971,649.7047804999747,z,1,0.8294837000139523,None,4.211486135833868,649.7057248999772,649.7200697999797,654.5316965999955,653.9046568999765,,,,,Shuai,001,2025-03-10_21h05.36.509,stroop,2024.2.4,60.118553784455635,2025-03-10 21h05.51.201030 -0700,
test,inconsistent,44,green,red,word,z,800,2000,132,14,2,z,1,1.219300500000827,None,2,14,132,43,654.5316965999955,,,,,,,,,654.3140010999923,654.5316965999955,654.5316965999955,654.5316965999955,654.5316965999955,654.6210023999738,654.6210023999738,655.754549699981,z,1,1.219300500000827,None,1.86447065888039,655.755386099976,655.7704192999809,658.1605918999994,657.6049202999857,,,,,Shuai,001,2025-03-10_21h05.36.509,stroop,2024.2.4,60.118553784455635,2025-03-10 21h05.51.201030 -0700,
test,inconsistent,53,red,yellow,word,z,800,2000,133,15,2,z,1,0.8173037999949884,None,2,15,133,52,658.1605918999994,,,,,,,,,657.8611727999814,658.1605918999994,658.1605918999994,658.1605918999994,658.1605918999994,658.3212347999797,658.3212347999797,658.9885186999745,z,1,0.8173037999949884,None,5.750001107659636,658.9893920999893,659.0045867999725,665.4109731999924,664.7387827999773,,,,,Shuai,001,2025-03-10_21h05.36.509,stroop,2024.2.4,60.118553784455635,2025-03-10 21h05.51.201030 -0700,
test,inconsistent,29,green,blue,word,z,800,2000,134,16,2,z,1,0.7271700999990571,None,2,16,134,28,665.4109731999924,,,,,,,,,665.113504399982,665.4109731999924,665.4109731999924,665.4109731999924,665.4109731999924,665.455275699991,665.455275699991,666.1392016999889,z,1,0.7271700999990571,None,1.706848916503242,666.1399277999881,666.1551646999724,668.5072939999809,667.8391916999826,,,,,Shuai,001,2025-03-10_21h05.36.509,stroop,2024.2.4,60.118553784455635,2025-03-10 21h05.51.201030 -0700,
test,consistent,54,green,green,word,m,800,2000,135,17,2,m,1,1.4812812999880407,None,2,17,135,53,668.5072939999809,,,,,,,,,668.2059245999844,668.5072939999809,668.5072939999809,668.5072939999809,668.5072939999809,668.5554578999872,668.5554578999872,670.0062161999813,m,1,1.4812812999880407,None,4.516890213201186,670.0070624999935,670.021740999975,675.1442680999753,674.5232842999976,,,,,Shuai,001,2025-03-10_21h05.36.509,stroop,2024.2.4,60.118553784455635,2025-03-10 21h05.51.201030 -0700,
test,consistent,35,red,red,word,m,800,2000,136,18,2,m,1,0.6718699000193737,None,2,18,136,34,675.1442680999753,,,,,,,,,674.845576199994,675.1442680999753,675.1442680999753,675.1442680999753,675.1442680999753,675.2397073999746,675.2397073999746,675.8235892999801,m,1,0.6718699000193737,None,4.246728066770672,675.8242918999749,675.8393799999903,680.4902450999944,680.0565020999929,,,,,Shuai,001,2025-03-10_21h05.36.509,stroop,2024.2.4,60.118553784455635,2025-03-10 21h05.51.201030 -0700,
test,inconsistent,6,red,yellow,word,z,800,2000,137,19,2,z,1,0.9587734999950044,None,2,19,137,5,680.4902450999944,,,,,,,,,680.3852036999888,680.4902450999944,680.4902450999944,,680.4902450999944,680.7564696999907,680.7564696999907,681.4576574999955,z,1,0.9587734999950044,None,1.5303150289999876,681.4587080999918,681.4732666999917,683.6275414999982,682.9738976999943,,,,,Shuai,001,2025-03-10_21h05.36.509,stroop,2024.2.4,60.118553784455635,2025-03-10 21h05.51.201030 -0700,
test,consistent,41,green,green,word,m,800,2000,138,20,2,m,1,0.6860715000075288,None,2,20,138,40,683.6275414999982,,,,,,,,,683.3318384999875,683.6275414999982,683.6275414999982,683.6275414999982,683.6275414999982,683.6735681999999,683.6735681999999,684.324456399976,m,1,0.6860715000075288,None,4.123709993694737,684.3253840999969,684.3403256999736,689.0422768999997,688.4412812999799,,,,,Shuai,001,2025-03-10_21h05.36.509,stroop,2024.2.4,60.118553784455635,2025-03-10 21h05.51.201030 -0700,
test,consistent,51,red,red,word,m,800,2000,139,21,2,m,1,0.6115022000158206,None,2,21,139,50,689.0422768999997,,,,,,,,,688.742187099997,689.0422768999997,689.0422768999997,689.0422768999997,689.0422768999997,689.1409397999814,689.1409397999814,689.6581498000014,m,1,0.6115022000158206,None,4.392912323576419,689.6589649999805,689.6743432999938,694.6050163999898,694.0411401999881,,,,,Shuai,001,2025-03-10_21h05.36.509,stroop,2024.2.4,60.118553784455635,2025-03-10 21h05.51.201030 -0700,
test,consistent,23,green,green,word,m,800,2000,140,22,2,m,1,0.6265883000160102,None,2,22,140,22,694.6050163999898,,,,,,,,,694.3728394999926,694.6050163999898,694.6050163999898,694.6050163999898,694.6050163999898,694.740854499978,694.740854499978,695.2415862999915,m,1,0.6265883000160102,None,2.528714058394847,695.2424810999946,695.2580263999989,698.1741102999949,697.7589172000007,,,,,Shuai,001,2025-03-10_21h05.36.509,stroop,2024.2.4,60.118553784455635,2025-03-10 21h05.51.201030 -0700,
test,inconsistent,55,green,yellow,word,z,800,2000,141,23,2,z,1,0.9225991000130307,None,2,23,141,54,698.1741102999949,,,,,,,,,698.0317120999971,698.1741102999949,698.1741102999949,698.1741102999949,698.1741102999949,698.4750448999985,698.4750448999985,699.1088055,z,1,0.9225991000130307,None,3.606377665082266,699.1094921999902,699.1250864999893,703.0515062999912,702.7092493999808,,,,,Shuai,001,2025-03-10_21h05.36.509,stroop,2024.2.4,60.118553784455635,2025-03-10 21h05.51.201030 -0700,
test,consistent,12,yellow,yellow,word,m,800,2000,142,24,2,m,1,0.7030664999911096,None,2,24,142,11,703.0515062999912,,,,,,,,,702.910888399987,703.0515062999912,703.0515062999912,703.0515062999912,703.0515062999912,703.4089905000001,703.4089905000001,703.7593957999779,m,1,0.7030664999911096,None,2.801242313614751,703.7601013999956,703.7756649999938,707.0476696999976,706.5596290999965,,,,,Shuai,001,2025-03-10_21h05.36.509,stroop,2024.2.4,60.118553784455635,2025-03-10 21h05.51.201030 -0700,
test,inconsistent,52,red,green,word,z,800,2000,143,25,2,z,1,0.8845320999971591,None,2,25,143,51,707.0476696999976,,,,,,,,,706.7420246999827,707.0476696999976,707.0476696999976,707.0476696999976,707.0476696999976,707.2760451999784,707.2760451999784,707.943517799984,z,1,0.8845320999971591,None,2.7132528314136235,707.9443192999752,707.9591267999785,711.2826654999808,710.6433583999751,,,,,Shuai,001,2025-03-10_21h05.36.509,stroop,2024.2.4,60.118553784455635,2025-03-10 21h05.51.201030 -0700,
test,inconsistent,22,red,yellow,word,z,800,2000,144,26,2,z,1,0.7500584999797866,None,2,26,144,21,711.2826654999808,,,,,,,,,710.9761099999887,711.2826654999808,711.2826654999808,711.2826654999808,711.2826654999808,711.3429904999794,711.3429904999794,712.0440653999976,z,1,0.7500584999797866,None,4.04641490177809,712.0447626999812,712.0598337999836,716.5220059999847,716.077526899986,,,,,Shuai,001,2025-03-10_21h05.36.509,stroop,2024.2.4,60.118553784455635,2025-03-10 21h05.51.201030 -0700,
test,inconsistent,14,yellow,blue,word,z,800,2000,145,27,2,z,1,0.8864807999925688,None,2,27,145,13,716.5220059999847,,,,,,,,,716.4230000999814,716.5220059999847,716.5220059999847,,716.5220059999847,716.7944410999771,716.7944410999771,717.4109629000013,z,1,0.8864807999925688,None,4.096092678431083,717.4119978999952,717.427134699974,722.1384569999937,721.4947022999986,,,,,Shuai,001,2025-03-10_21h05.36.509,stroop,2024.2.4,60.118553784455635,2025-03-10 21h05.51.201030 -0700,
test,inconsistent,50,yellow,green,word,z,800,2000,146,28,2,z,1,0.7165010000171605,None,2,28,146,49,722.1384569999937,,,,,,,,,721.8380061999778,722.1384569999937,722.1384569999937,722.1384569999937,722.1384569999937,722.2105625999975,722.2105625999975,722.8614744999795,z,1,0.7165010000171605,None,5.922683088586953,722.862189699983,722.8773498999944,729.3865996999957,728.7789903999947,,,,,Shuai,001,2025-03-10_21h05.36.509,stroop,2024.2.4,60.118553784455635,2025-03-10 21h05.51.201030 -0700,
test,inconsistent,48,yellow,red,word,z,800,2000,147,29,2,z,1,0.6194334999890998,None,2,29,147,47,729.3865996999957,,,,,,,,,729.1596700999944,729.3865996999957,729.3865996999957,729.3865996999957,729.3865996999957,729.4949519999791,729.4949519999791,730.0124393999868,z,1,0.6194334999890998,None,1.0843507981203329,730.0131899999978,730.0280413999863,731.4948361999996,731.095666499983,,,,,Shuai,001,2025-03-10_21h05.36.509,stroop,2024.2.4,60.118553784455635,2025-03-10 21h05.51.201030 -0700,
test,inconsistent,16,red,green,word,z,800,2000,148,30,2,z,1,0.8133498000097461,None,2,30,148,15,731.4948361999996,,,,,,,,,731.3257852999959,731.4948361999996,731.4948361999996,731.4948361999996,731.4948361999996,731.8118383999972,731.8118383999972,732.3123705999751,z,1,0.8133498000097461,None,2.287134777123851,732.3131951999967,732.3286471999891,735.1538668999856,734.5958369,,,,,Shuai,001,2025-03-10_21h05.36.509,stroop,2024.2.4,60.118553784455635,2025-03-10 21h05.51.201030 -0700,
test,consistent,38,blue,blue,word,m,800,2000,149,31,2,m,1,0.8504217999870889,None,2,31,149,37,735.1538668999856,,,,,,,,,734.8545728999889,735.1538668999856,735.1538668999856,735.1538668999856,735.1538668999856,735.3119757999957,735.3119757999957,736.0126654999913,m,1,0.8504217999870889,None,2.9276479956740564,736.0135108999966,736.0289272999798,739.5964545999886,738.9293941999786,,,,,Shuai,001,2025-03-10_21h05.36.509,stroop,2024.2.4,60.118553784455635,2025-03-10 21h05.51.201030 -0700,
test,inconsistent,17,yellow,green,word,z,800,2000,150,32,2,z,1,0.691595900018001,None,2,32,150,16,739.5964545999886,,,,,,,,,739.3001326999802,739.5964545999886,739.5964545999886,739.5964545999886,739.5964545999886,739.6459272999782,739.6459272999782,740.2965511999791,z,1,0.691595900018001,None,2.187370649257866,740.2973512999888,740.3125219999929,743.1051360999991,742.4800061999995,,,,,Shuai,001,2025-03-10_21h05.36.509,stroop,2024.2.4,60.118553784455635,2025-03-10 21h05.51.201030 -0700,
test,inconsistent,5,orange,blue,word,z,800,2000,151,33,2,z,1,0.6091141999932006,None,2,33,151,4,743.1051360999991,,,,,,,,,742.8064957999741,743.1051360999991,743.1051360999991,743.1051360999991,743.1051360999991,743.1794891999743,743.1794891999743,743.7299723999749,z,1,0.6091141999932006,None,5.0469906153696735,743.7308921999938,743.7463634999876,749.326986399974,748.7640906999877,,,,,Shuai,001,2025-03-10_21h05.36.509,stroop,2024.2.4,60.118553784455635,2025-03-10 21h05.51.201030 -0700,
test,inconsistent,30,blue,red,word,z,800,2000,152,34,2,z,1,0.7276492000091821,None,2,34,152,29,749.326986399974,,,,,,,,,749.1065347999975,749.326986399974,749.326986399974,749.326986399974,749.326986399974,749.4802327999787,749.4802327999787,750.0644772999804,z,1,0.7276492000091821,None,3.946994518798691,750.0651747999946,750.0803841999732,754.2211242999765,753.9975347,,,,,Shuai,001,2025-03-10_21h05.36.509,stroop,2024.2.4,60.118553784455635,2025-03-10 21h05.51.201030 -0700,
test,consistent,1,red,red,word,m,800,2000,153,35,2,m,1,0.8724740000034217,None,2,35,153,0,754.2211242999765,,,,,,,,,754.2102457000001,754.2211242999765,754.2211242999765,,754.2211242999765,754.6974012999854,754.6974012999854,755.0983074999822,m,1,0.8724740000034217,None,1.5835265731457855,755.0991620999994,755.1140004999761,757.2131433999748,756.6811793999805,,,,,Shuai,001,2025-03-10_21h05.36.509,stroop,2024.2.4,60.118553784455635,2025-03-10 21h05.51.201030 -0700,
test,consistent,47,blue,blue,word,m,800,2000,154,36,2,m,1,0.8784419999865349,None,2,36,154,46,757.2131433999748,,,,,,,,,756.9118449999951,757.2131433999748,757.2131433999748,757.2131433999748,757.2131433999748,757.3809872999846,757.3809872999846,758.0984208999726,m,1,0.8784419999865349,None,3.1774150448573493,758.099290299986,758.1144339999883,761.8975366999803,761.2654861999908,,,,,Shuai,001,2025-03-10_21h05.36.509,stroop,2024.2.4,60.118553784455635,2025-03-10 21h05.51.201030 -0700,
test,inconsistent,58,yellow,red,word,z,800,2000,155,37,2,z,1,0.770056499983184,None,2,37,155,57,761.8975366999803,,,,,,,,,761.6028229999938,761.8975366999803,761.8975366999803,761.8975366999803,761.8975366999803,761.9811035999737,761.9811035999737,762.6821172999917,z,1,0.770056499983184,None,5.7320564022521285,762.6829446999764,762.698029799998,768.9789893999987,768.3992254999757,,,,,Shuai,001,2025-03-10_21h05.36.509,stroop,2024.2.4,60.118553784455635,2025-03-10 21h05.51.201030 -0700,
test,inconsistent,32,orange,green,word,z,800,2000,156,38,2,z,1,0.6817756999807898,None,2,38,156,31,768.9789893999987,,,,,,,,,768.761221599998,768.9789893999987,768.9789893999987,768.9789893999987,768.9789893999987,769.1153511999873,769.1153511999873,769.665772599983,z,1,0.6817756999807898,None,2.219353643215108,769.6665060999803,769.6823343999858,772.410853999987,771.8827049999963,,,,,Shuai,001,2025-03-10_21h05.36.509,stroop,2024.2.4,60.118553784455635,2025-03-10 21h05.51.201030 -0700,
test,inconsistent,56,green,red,word,z,800,2000,157,39,2,z,1,0.7901648000115529,None,2,39,157,55,772.410853999987,,,,,,,,,772.1146851999802,772.410853999987,772.410853999987,772.410853999987,772.410853999987,772.5824043999892,772.5824043999892,773.2166941999749,z,1,0.7901648000115529,None,3.574999247419364,773.2175614000007,773.232574099995,777.5245902999886,776.7834754999785,,,,,Shuai,001,2025-03-10_21h05.36.509,stroop,2024.2.4,60.118553784455635,2025-03-10 21h05.51.201030 -0700,
test,inconsistent,11,green,red,word,z,800,2000,158,40,2,z,1,0.8251499999896623,None,2,40,158,10,777.5245902999886,,,,,,,,,777.1232152000011,777.5245902999886,777.5245902999886,777.5245902999886,777.5245902999886,777.5277525999991,777.5277525999991,778.3671609999728,z,1,0.8251499999896623,None,1.7719283628267959,778.3680303999863,778.3831782999914,780.7425899999798,780.133643899986,,,,,Shuai,001,2025-03-10_21h05.36.509,stroop,2024.2.4,60.118553784455635,2025-03-10 21h05.51.201030 -0700,
test,inconsistent,9,red,blue,word,z,800,2000,159,41,2,z,1,0.8941788999945857,None,2,41,159,8,780.7425899999798,,,,,,,,,780.5964146999759,780.7425899999798,780.7425899999798,780.7425899999798,780.7425899999798,780.8500039999781,780.8500039999781,781.6504931999953,z,1,0.8941788999945857,None,4.762034260121769,781.6512131999771,781.6663200999901,786.9283128999814,786.4007033999951,,,,,Shuai,001,2025-03-10_21h05.36.509,stroop,2024.2.4,60.118553784455635,2025-03-10 21h05.51.201030 -0700,
test,inconsistent,26,green,yellow,word,z,800,2000,160,42,2,z,1,0.6794067999871913,None,2,42,160,25,786.9283128999814,,,,,,,,,786.6295626999927,786.9283128999814,786.9283128999814,786.9283128999814,786.9283128999814,787.1169476999785,787.1169476999785,787.6176888999762,z,1,0.6794067999871913,None,2.9878552463801604,787.6186419999867,787.6336573000008,791.2254968999769,790.6012339000008,,,,,Shuai,001,2025-03-10_21h05.36.509,stroop,2024.2.4,60.118553784455635,2025-03-10 21h05.51.201030 -0700,
test,consistent,40,yellow,yellow,word,m,800,2000,161,43,2,m,1,1.3585203000111505,None,2,43,161,39,791.2254968999769,,,,,,,,,790.9672299999802,791.2254968999769,791.2254968999769,791.2254968999769,791.2254968999769,791.3176678999735,791.3176678999735,792.5853288999933,m,1,1.3585203000111505,None,1.4913335052389205,792.5861626999977,792.6012547999853,794.4374979999848,794.0685292999842,,,,,Shuai,001,2025-03-10_21h05.36.509,stroop,2024.2.4,60.118553784455635,2025-03-10 21h05.51.201030 -0700,
test,consistent,45,red,red,word,m,800,2000,162,44,2,m,1,1.0752157999959309,None,2,44,162,44,794.4374979999848,,,,,,,,,794.4050596999878,794.4374979999848,794.4374979999848,,794.4374979999848,794.7678250999888,794.7678250999888,795.5191362999904,m,1,1.0752157999959309,None,5.703740533804222,795.520107999997,795.5346508999937,801.8759310999885,801.2190351999889,,,,,Shuai,001,2025-03-10_21h05.36.509,stroop,2024.2.4,60.118553784455635,2025-03-10 21h05.51.201030 -0700,
test,consistent,49,yellow,yellow,word,m,800,2000,163,45,2,m,1,0.9886199999891687,None,2,45,163,48,801.8759310999885,,,,,,,,,801.4772609999927,801.8759310999885,801.8759310999885,801.8759310999885,801.8759310999885,801.9353783999977,801.9353783999977,802.869526800001,m,1,0.9886199999891687,None,1.8400979478057224,802.8703053999925,802.8854167999816,805.4744368999964,804.7028076999995,,,,,Shuai,001,2025-03-10_21h05.36.509,stroop,2024.2.4,60.118553784455635,2025-03-10 21h05.51.201030 -0700,
test,consistent,46,yellow,yellow,word,m,800,2000,164,46,2,z,0,1.3273089999856893,None,2,46,164,45,805.4744368999964,,,,,,,,,805.071798799996,805.4744368999964,805.4744368999964,805.4744368999964,805.4744368999964,805.4771748999774,805.4771748999774,806.8029540999851,z,0,1.3273089999856893,None,2.3707778180194348,806.8036799999827,806.8192416999955,809.754713399976,809.1699939999962,,,,,Shuai,001,2025-03-10_21h05.36.509,stroop,2024.2.4,60.118553784455635,2025-03-10 21h05.51.201030 -0700,
test,inconsistent,19,green,red,word,z,800,2000,165,47,2,z,1,0.891364999988582,None,2,47,165,18,809.754713399976,,,,,,,,,809.5876856999821,809.754713399976,809.754713399976,809.754713399976,809.754713399976,809.8862588999909,809.8862588999909,810.6535729999887,z,1,0.891364999988582,None,2.0001970274297256,810.6543600999867,810.6692630999896,813.2234243999992,812.6535069999809,,,,,Shuai,001,2025-03-10_21h05.36.509,stroop,2024.2.4,60.118553784455635,2025-03-10 21h05.51.201030 -0700,
test,inconsistent,24,blue,green,word,z,800,2000,166,48,2,z,1,0.7357383999915328,None,2,48,166,23,813.2234243999992,,,,,,,,,812.9272211999923,813.2234243999992,813.2234243999992,813.2234243999992,813.2234243999992,813.3700182999892,813.3700182999892,813.970628799987,z,1,0.7357383999915328,None,3.197864447812748,813.9714231999824,813.9864460999961,817.6384952999942,817.153834799974,,,,,Shuai,001,2025-03-10_21h05.36.509,stroop,2024.2.4,60.118553784455635,2025-03-10 21h05.51.201030 -0700,
test,inconsistent,27,green,red,word,z,800,2000,167,49,2,z,1,1.016428700007964,None,2,49,167,26,817.6384952999942,,,,,,,,,817.5385372999881,817.6384952999942,817.6384952999942,,817.6384952999942,817.8535307999991,817.8535307999991,818.6712528999778,z,1,1.016428700007964,None,5.294707941701115,818.6720663999731,818.6871158999857,824.5665061999753,823.9545369999832,,,,,Shuai,001,2025-03-10_21h05.36.509,stroop,2024.2.4,60.118553784455635,2025-03-10 21h05.51.201030 -0700,
test,inconsistent,3,blue,red,word,z,800,2000,168,50,2,z,1,0.6529652000172064,None,2,50,168,2,824.5665061999753,,,,,,,,,824.3327064999903,824.5665061999753,824.5665061999753,824.5665061999753,824.5665061999753,824.6544124999782,824.6544124999782,825.221422499977,z,1,0.6529652000172064,None,1.0268533755932205,825.2222492999863,825.2377248999837,826.7656271999876,826.2381427999935,,,,,Shuai,001,2025-03-10_21h05.36.509,stroop,2024.2.4,60.118553784455635,2025-03-10 21h05.51.201030 -0700,
test,consistent,34,green,green,word,m,800,2000,169,51,2,m,1,0.7191936000017449,None,2,51,169,33,826.7656271999876,,,,,,,,,826.5334779999976,826.7656271999876,826.7656271999876,826.7656271999876,826.7656271999876,826.9378846999898,826.9378846999898,827.4887254999776,m,1,0.7191936000017449,None,3.060056947028415,827.4895668999816,827.5042706999811,831.1360150999972,830.5386682999961,,,,,Shuai,001,2025-03-10_21h05.36.509,stroop,2024.2.4,60.118553784455635,2025-03-10 21h05.51.201030 -0700,
test,inconsistent,37,red,green,word,z,800,2000,170,52,2,z,1,0.9735802999930456,None,2,52,170,36,831.1360150999972,,,,,,,,,830.8371017999889,831.1360150999972,831.1360150999972,831.1360150999972,831.1360150999972,831.2548276999732,831.2548276999732,832.1225521999877,z,1,0.9735802999930456,None,3.8971720341354685,832.123391799978,832.1381938999984,836.5218910999829,836.0056597999937,,,,,Shuai,001,2025-03-10_21h05.36.509,stroop,2024.2.4,60.118553784455635,2025-03-10 21h05.51.201030 -0700,
test,inconsistent,2,yellow,green,word,z,800,2000,171,53,2,z,1,0.7711677000042982,None,2,53,171,1,836.5218910999829,,,,,,,,,836.3551089999964,836.5218910999829,836.5218910999829,836.5218910999829,836.5218910999829,836.7220361999935,836.7220361999935,837.3061312999926,z,1,0.7711677000042982,None,2.1056941207220596,837.3071319999872,837.3219517999969,839.8611392999883,839.4063713999931,,,,,Shuai,001,2025-03-10_21h05.36.509,stroop,2024.2.4,60.118553784455635,2025-03-10 21h05.51.201030 -0700,
test,consistent,57,yellow,yellow,word,m,800,2000,172,54,2,m,1,0.859804300009273,None,2,54,172,56,839.8611392999883,,,,,,,,,839.6386361999903,839.8611392999883,839.8611392999883,839.8611392999883,839.8611392999883,840.1225812999764,840.1225812999764,840.7230293999892,m,1,0.859804300009273,None,3.761177218002005,840.7238504999841,840.7393422999885,844.6979840999993,844.473411199986,,,,,Shuai,001,2025-03-10_21h05.36.509,stroop,2024.2.4,60.118553784455635,2025-03-10 21h05.51.201030 -0700,
test,inconsistent,31,yellow,red,word,z,800,2000,173,55,2,z,1,0.6788373999879695,None,2,55,173,30,844.6979840999993,,,,,,,,,844.6892792999861,844.6979840999993,844.6979840999993,,844.6979840999993,845.1898463999969,845.1898463999969,845.390542499983,z,1,0.6788373999879695,None,4.804916988599512,845.3913546999975,845.4064526000002,850.684480099997,850.1903124999953,,,,,Shuai,001,2025-03-10_21h05.36.509,stroop,2024.2.4,60.118553784455635,2025-03-10 21h05.51.201030 -0700,
test,inconsistent,33,yellow,green,word,z,800,2000,174,56,2,z,1,0.6992118000052869,None,2,56,174,32,850.684480099997,,,,,,,,,850.4233490999904,850.684480099997,850.684480099997,850.684480099997,850.684480099997,850.89011019998,850.89011019998,851.3903749999881,z,1,0.6992118000052869,None,3.673579125254136,851.3910546999832,851.4066115999885,855.6948758999933,855.0572727999825,,,,,Shuai,001,2025-03-10_21h05.36.509,stroop,2024.2.4,60.118553784455635,2025-03-10 21h05.51.201030 -0700,
test,inconsistent,39,red,yellow,word,z,800,2000,175,57,2,z,1,0.6156780000019353,None,2,57,175,38,855.6948758999933,,,,,,,,,855.3953035000013,855.6948758999933,855.6948758999933,855.6948758999933,855.6948758999933,855.7735539999849,855.7735539999849,856.324890399992,z,1,0.6156780000019353,None,1.1046409737994836,856.3256466999883,856.3406461999984,857.9954119999893,857.4242914999777,,,,,Shuai,001,2025-03-10_21h05.36.509,stroop,2024.2.4,60.118553784455635,2025-03-10 21h05.51.201030 -0700,
test,consistent,36,red,red,word,m,800,2000,176,58,2,m,1,0.8108997999806888,None,2,58,176,35,857.9954119999893,,,,,,,,,857.7728829999978,857.9954119999893,857.9954119999893,857.9954119999893,857.9954119999893,858.1237799999944,858.1237799999944,858.8081964999728,m,1,0.8108997999806888,None,5.150731343038817,858.8090785999957,858.8241987999936,864.4209421999985,863.9587209999736,,,,,Shuai,001,2025-03-10_21h05.36.509,stroop,2024.2.4,60.118553784455635,2025-03-10 21h05.51.201030 -0700,
test,consistent,36,red,red,word,m,800,2000,177,0,3,m,1,0.9002901999920141,None,3,0,177,35,864.4209421999985,,,,,,,,,864.2523867999844,864.4209421999985,864.4209421999985,864.4209421999985,864.4209421999985,864.6751019999792,864.6751019999792,865.3258285999764,m,1,0.9002901999920141,None,2.5168310521699113,865.3266149999981,865.3415083999862,868.3578019999841,867.8419630999852,,,,,Shuai,001,2025-03-10_21h05.36.509,stroop,2024.2.4,60.118553784455635,2025-03-10 21h05.51.201030 -0700,
test,inconsistent,22,red,yellow,word,z,800,2000,178,1,3,z,1,0.9537605000077747,None,3,1,178,21,868.3578019999841,,,,,,,,,868.0954615999945,868.3578019999841,868.3578019999841,868.3578019999841,868.3578019999841,868.5585718999791,868.5585718999791,869.3254758999974,z,1,0.9537605000077747,None,4.1144428169176805,869.3262549999927,869.3414158999803,873.8374170999741,873.4260137999954,,,,,Shuai,001,2025-03-10_21h05.36.509,stroop,2024.2.4,60.118553784455635,2025-03-10 21h05.51.201030 -0700,
test,consistent,46,yellow,yellow,word,m,800,2000,179,2,3,m,1,1.2317495000024792,None,3,2,179,45,873.8374170999741,,,,,,,,,873.7375328999769,873.8374170999741,873.8374170999741,,873.8374170999741,874.1261073999922,874.1261073999922,875.0769414999813,m,1,1.2317495000024792,None,2.763246592536665,875.077765999973,875.0922595000011,878.369858799997,877.8268321999931,,,,,Shuai,001,2025-03-10_21h05.36.509,stroop,2024.2.4,60.118553784455635,2025-03-10 21h05.51.201030 -0700,
test,inconsistent,30,blue,red,word,z,800,2000,180,3,3,z,1,0.9299820000014734,None,3,3,180,29,878.369858799997,,,,,,,,,878.151515799982,878.369858799997,878.369858799997,878.369858799997,878.369858799997,878.5427438999759,878.5427438999759,879.3109243999934,z,1,0.9299820000014734,None,1.0422533636168572,879.3116721999831,879.3262982999731,880.863440599991,880.3432410999958,,,,,Shuai,001,2025-03-10_21h05.36.509,stroop,2024.2.4,60.118553784455635,2025-03-10 21h05.51.201030 -0700,
test,consistent,57,yellow,yellow,word,m,800,2000,181,4,3,m,1,0.8382545000058599,None,3,4,181,56,880.863440599991,,,,,,,,,880.5654473999748,880.863440599991,880.863440599991,880.863440599991,880.863440599991,881.0430700999859,881.0430700999859,881.7104564999754,m,1,0.8382545000058599,None,4.006420764000861,881.7115545999841,881.7266270999971,886.2625278999913,885.7106936999771,,,,,Shuai,001,2025-03-10_21h05.36.509,stroop,2024.2.4,60.118553784455635,2025-03-10 21h05.51.201030 -0700,
test,consistent,35,red,red,word,m,800,2000,182,5,3,m,1,0.7032259000116028,None,3,5,182,34,886.2625278999913,,,,,,,,,886.0955638999876,886.2625278999913,886.2625278999913,886.2625278999913,886.2625278999913,886.4272202999855,886.4272202999855,886.9777912999853,m,1,0.7032259000116028,None,3.426870206470606,886.9786935999873,886.9935812999902,890.8332301999908,890.3942424999841,,,,,Shuai,001,2025-03-10_21h05.36.509,stroop,2024.2.4,60.118553784455635,2025-03-10 21h05.51.201030 -0700,
test,inconsistent,9,red,blue,word,z,800,2000,183,6,3,z,1,0.8553247000090778,None,3,6,183,8,890.8332301999908,,,,,,,,,890.6619020999933,890.8332301999908,890.8332301999908,890.8332301999908,890.8332301999908,891.0939104999998,891.0939104999998,891.6944995999802,z,1,0.8553247000090778,None,1.2484937009960608,891.695415299997,891.7107555999828,893.4498388999782,892.92824009998,,,,,Shuai,001,2025-03-10_21h05.36.509,stroop,2024.2.4,60.118553784455635,2025-03-10 21h05.51.201030 -0700,
test,inconsistent,17,yellow,green,word,z,800,2000,184,7,3,z,1,1.4130476999853272,None,3,7,184,16,893.4498388999782,,,,,,,,,893.1915722999838,893.4498388999782,893.4498388999782,893.4498388999782,893.4498388999782,893.6440893999825,893.6440893999825,894.8779980999825,z,1,1.4130476999853272,None,1.7163680831217345,894.8788532999752,894.8942732999858,897.1879809999955,896.578445799998,,,,,Shuai,001,2025-03-10_21h05.36.509,stroop,2024.2.4,60.118553784455635,2025-03-10 21h05.51.201030 -0700,
test,inconsistent,20,red,green,word,z,800,2000,185,8,3,z,1,0.8452419000095688,None,3,8,185,19,897.1879809999955,,,,,,,,,896.891688499978,897.1879809999955,897.1879809999955,897.1879809999955,897.1879809999955,897.2780621999991,897.2780621999991,898.0453807000013,z,1,0.8452419000095688,None,1.087957283888835,898.0462296999758,898.0615042999852,899.7672694999783,899.1289587999927,,,,,Shuai,001,2025-03-10_21h05.36.509,stroop,2024.2.4,60.118553784455635,2025-03-10 21h05.51.201030 -0700,
test,inconsistent,29,green,blue,word,z,800,2000,186,9,3,z,1,1.0673831999883987,None,3,9,186,28,899.7672694999783,,,,,,,,,899.4663825999887,899.7672694999783,899.7672694999783,899.7672694999783,899.7672694999783,899.8450148999982,899.8450148999982,900.8455520999851,z,1,1.0673831999883987,None,1.3751335014396995,900.8462698999792,900.8614529999904,902.8016537999792,902.2122476999939,,,,,Shuai,001,2025-03-10_21h05.36.509,stroop,2024.2.4,60.118553784455635,2025-03-10 21h05.51.201030 -0700,
test,inconsistent,5,orange,blue,word,z,800,2000,187,10,3,z,1,0.6019685000064783,None,3,10,187,4,902.8016537999792,,,,,,,,,902.5830491999805,902.8016537999792,902.8016537999792,902.8016537999792,902.8016537999792,902.9281232999929,902.9281232999929,903.4121511999983,z,1,0.6019685000064783,None,2.431788235982003,903.4131776999857,903.4281842999917,906.1549664999766,905.8295363999787,,,,,Shuai,001,2025-03-10_21h05.36.509,stroop,2024.2.4,60.118553784455635,2025-03-10 21h05.51.201030 -0700,
test,consistent,51,red,red,word,m,800,2000,188,11,3,m,1,1.1636276000062935,None,3,11,188,50,906.1549664999766,,,,,,,,,906.0558092999854,906.1549664999766,906.1549664999766,907.3541020999837,906.1549664999766,906.5291643999808,906.5291643999808,907.3546111999894,m,1,1.1636276000062935,None,2.143361295799032,907.3553708999825,907.3587608999806,910.0965562999772,909.4965925999859,,,,,Shuai,001,2025-03-10_21h05.36.509,stroop,2024.2.4,60.118553784455635,2025-03-10 21h05.51.201030 -0700,
test,inconsistent,37,red,green,word,z,800,2000,189,12,3,z,1,0.6523290000041015,None,3,12,189,36,910.0965562999772,,,,,,,,,909.8760194999923,910.0965562999772,910.0965562999772,910.0965562999772,910.0965562999772,910.2126921999734,910.2126921999734,910.7634538999991,z,1,0.6523290000041015,None,1.263374188651619,910.7642959999794,910.7792307999916,912.0293579999998,912.0132138999761,,,,,Shuai,001,2025-03-10_21h05.36.509,stroop,2024.2.4,60.118553784455635,2025-03-10 21h05.51.201030 -0700,
,,,,,,,,,,,,,,,,,,,,,,,,,,,,,,,,,,,,,,,,,,,,,,,912.0142130999884,912.0293579999998,941.9997314999928,Shuai,001,2025-03-10_21h05.36.509,stroop,2024.2.4,60.118553784455635,2025-03-10 21h05.51.201030 -0700,
