type,condition1,trialNo,stim1,textColor,stimFormat,key,ITI,presTime,thisN,thisTrialN,thisRepN,press.keys,press.corr,press.rt,press.duration,stroop.thisRepN,stroop.thisTrialN,stroop.thisN,stroop.thisIndex,thisRow.t,notes,welcome.started,press_space.started,text_welcome.started,welcome.stopped,press_space.keys,press_space.rt,press_space.duration,trial.started,press.started,text_stroop.started,sound_1.started,dot.started,text_stroop.stopped,trial.stopped,stroop.press.keys,stroop.press.corr,stroop.press.rt,stroop.press.duration,time_fixation,fixation.started,dot_fixation.started,dot_fixation.stopped,fixation.stopped,thanks.started,thank_you.started,thanks.stopped,participant,session,date,expName,psychopyVersion,frameRate,expStart,
,,,,,,,,,,,,,,,,,,,,,,0.0042635000027075876,0.008259600002929801,0.008259600002929801,6.16559849999976,space,6.140368799999123,None,,,,,,,,,,,,,,,,,,,,Casey,001,2025-03-08_17h57.48.792,pleaseworkstroopcontrol,2024.2.4,60.07857075424197,2025-03-08 17h58.03.975243 -0800,
test,consistent,38,blue,blue,word,m,800,2000,0,0,0,m,1,1.0191681000032986,None,0,0,0,37,6.270502700001089,,,,,,,,,6.265337700002419,6.270502700001089,6.270502700001089,0.09950679999747081,6.372879400001693,6.372879400001693,7.292180000000371,m,1,1.0191681000032986,None,3.1881538311003563,7.292905000002065,7.30587530000048,10.545085400000971,10.474275200002012,,,,Casey,001,2025-03-08_17h57.48.792,pleaseworkstroopcontrol,2024.2.4,60.07857075424197,2025-03-08 17h58.03.975243 -0800,
test,inconsistent,8,black,yellow,word,z,800,2000,1,1,0,z,1,0.5468140999983007,None,0,1,1,7,10.545085400000971,,,,,,,,,10.53786989999935,10.545085400000971,10.545085400000971,0.0637516000024334,10.689684500001022,10.689684500001022,11.108964000002743,z,1,0.5468140999983007,None,3.3342466039364593,11.109699799999362,11.12325310000233,14.50598810000156,14.441084400001273,,,,Casey,001,2025-03-08_17h57.48.792,pleaseworkstroopcontrol,2024.2.4,60.07857075424197,2025-03-08 17h58.03.975243 -0800,
test,consistent,23,green,green,word,m,800,2000,2,2,0,m,1,0.5545474999998987,None,0,2,2,22,14.50598810000156,,,,,,,,,14.499259700001858,14.50598810000156,14.50598810000156,0.05811180000091554,14.657185100000788,14.657185100000788,15.075686600001063,m,1,0.5545474999998987,None,4.874210402950544,15.076410600002419,15.090551799999957,20.00609600000098,19.941829700001108,,,,Casey,001,2025-03-08_17h57.48.792,pleaseworkstroopcontrol,2024.2.4,60.07857075424197,2025-03-08 17h58.03.975243 -0800,
test,inconsistent,26,green,yellow,word,z,800,2000,3,3,0,z,1,0.4882577999997011,None,0,3,3,25,20.00609600000098,,,,,,,,,20.00006779999967,20.00609600000098,20.00609600000098,0.05835089999891352,20.156908400000248,20.156908400000248,20.509496900001977,z,1,0.4882577999997011,None,2.5021966995026808,20.510323000002245,20.524062100001174,23.07287279999946,23.008534800002963,,,,Casey,001,2025-03-08_17h57.48.792,pleaseworkstroopcontrol,2024.2.4,60.07857075424197,2025-03-08 17h58.03.975243 -0800,
test,inconsistent,4,red,green,word,z,800,2000,4,4,0,z,1,0.4968667000030109,None,0,4,4,3,23.07287279999946,,,,,,,,,23.06778850000046,23.07287279999946,23.07287279999946,0.05935160000080941,23.224551999999676,23.224551999999676,23.576573800000915,z,1,0.4968667000030109,None,4.3365132021014325,23.577475199999753,23.590896800000337,27.96628950000013,27.909265199999936,,,,Casey,001,2025-03-08_17h57.48.792,pleaseworkstroopcontrol,2024.2.4,60.07857075424197,2025-03-08 17h58.03.975243 -0800,
test,inconsistent,9,red,blue,word,z,800,2000,5,5,0,z,1,0.5267864000015834,None,0,5,5,8,27.96628950000013,,,,,,,,,27.960622200000216,27.96628950000013,27.96628950000013,0.05139259999850765,28.124872300002608,28.124872300002608,28.51010280000264,z,1,0.5267864000015834,None,4.592977030423723,28.510755499999505,28.524994499999593,33.15531420000116,33.093205100001796,,,,Casey,001,2025-03-08_17h57.48.792,pleaseworkstroopcontrol,2024.2.4,60.07857075424197,2025-03-08 17h58.03.975243 -0800,
test,inconsistent,20,red,green,word,z,800,2000,6,6,0,z,1,0.6540320999993128,None,0,6,6,19,33.15531420000116,,,,,,,,,33.149140100002114,33.15531420000116,33.15531420000116,0.055959199999051634,33.30884340000193,33.30884340000193,33.81183820000297,z,1,0.6540320999993128,None,1.3946234068684462,33.8126099000001,33.82522009999957,35.256543400002556,35.19310310000219,,,,Casey,001,2025-03-08_17h57.48.792,pleaseworkstroopcontrol,2024.2.4,60.07857075424197,2025-03-08 17h58.03.975243 -0800,
test,inconsistent,17,yellow,green,word,z,800,2000,7,7,0,z,1,0.5219034000001557,None,0,7,7,16,35.256543400002556,,,,,,,,,35.25128330000007,35.256543400002556,35.256543400002556,0.058066199999302626,35.409070800000336,35.409070800000336,35.79402250000203,z,1,0.5219034000001557,None,4.040501278865867,35.79468790000101,35.80893620000279,39.88775340000211,39.82726140000159,,,,Casey,001,2025-03-08_17h57.48.792,pleaseworkstroopcontrol,2024.2.4,60.07857075424197,2025-03-08 17h58.03.975243 -0800,
test,inconsistent,21,black,yellow,word,z,800,2000,8,8,0,z,1,0.4518607999998494,None,0,8,8,20,39.88775340000211,,,,,,,,,39.88148690000162,39.88775340000211,39.88775340000211,0.05425850000028731,40.042750600001455,40.042750600001455,40.345135700001265,z,1,0.4518607999998494,None,3.252015774032647,40.345919200000935,40.359162200002174,43.62401880000107,43.59417320000284,,,,Casey,001,2025-03-08_17h57.48.792,pleaseworkstroopcontrol,2024.2.4,60.07857075424197,2025-03-08 17h58.03.975243 -0800,
test,inconsistent,58,yellow,red,word,z,800,2000,9,9,0,z,1,0.4567108000010194,None,0,9,9,57,43.62401880000107,,,,,,,,,43.61762480000107,43.62401880000107,43.62401880000107,0.023448100000678096,43.80962519999957,43.80962519999957,44.09437510000134,z,1,0.4567108000010194,None,5.222795794426181,44.09501640000235,44.109500900001876,49.34134040000208,49.31122750000213,,,,Casey,001,2025-03-08_17h57.48.792,pleaseworkstroopcontrol,2024.2.4,60.07857075424197,2025-03-08 17h58.03.975243 -0800,
test,consistent,43,green,green,word,m,800,2000,10,10,0,m,1,0.6376848999971116,None,0,10,10,42,49.34134040000208,,,,,,,,,49.33482500000173,49.34134040000208,49.34134040000208,0.02360460000272724,49.52705900000001,49.52705900000001,49.99580390000119,m,1,0.6376848999971116,None,4.224356598837966,49.996482900001865,50.010256699999445,54.24000580000211,54.21145660000184,,,,Casey,001,2025-03-08_17h57.48.792,pleaseworkstroopcontrol,2024.2.4,60.07857075424197,2025-03-08 17h58.03.975243 -0800,
test,inconsistent,39,red,yellow,word,z,800,2000,11,11,0,z,1,0.5209839000017382,None,0,11,11,38,54.24000580000211,,,,,,,,,54.2333615000025,54.24000580000211,54.24000580000211,0.022043299999495503,54.42755640000178,54.42755640000178,54.76348570000118,z,1,0.5209839000017382,None,1.0797254697658594,54.76450509999995,54.77748500000234,55.85800620000009,55.82858050000141,,,,Casey,001,2025-03-08_17h57.48.792,pleaseworkstroopcontrol,2024.2.4,60.07857075424197,2025-03-08 17h58.03.975243 -0800,
test,inconsistent,59,yellow,green,word,z,800,2000,12,12,0,z,1,0.5644056000019191,None,0,12,12,58,55.85800620000009,,,,,,,,,55.850659200001246,55.85800620000009,55.85800620000009,0.022228400001040427,56.04428010000265,56.04428010000265,56.429577300001256,z,1,0.5644056000019191,None,1.4002408549157355,56.43024190000142,56.44425659999979,57.85836290000225,57.82887169999958,,,,Casey,001,2025-03-08_17h57.48.792,pleaseworkstroopcontrol,2024.2.4,60.07857075424197,2025-03-08 17h58.03.975243 -0800,
test,consistent,7,green,green,word,m,800,2000,13,13,0,m,1,0.5302394999998796,None,0,13,13,6,57.85836290000225,,,,,,,,,57.852115100002266,57.85836290000225,57.85836290000225,0.023269400000572205,58.04452610000226,58.04452610000226,58.39673530000073,m,1,0.5302394999998796,None,4.019128513877759,58.39739080000072,58.41086670000004,62.44344610000189,62.412564700000075,,,,Casey,001,2025-03-08_17h57.48.792,pleaseworkstroopcontrol,2024.2.4,60.07857075424197,2025-03-08 17h58.03.975243 -0800,
test,consistent,57,yellow,yellow,word,m,800,2000,14,14,0,z,0,0.4165438999989419,None,0,14,14,56,62.44344610000189,,,,,,,,,62.43592310000167,62.44344610000189,62.44344610000189,0.02351289999933215,62.628356400000484,62.628356400000484,62.86304949999976,z,0,0.4165438999989419,None,2.332866839645833,62.86359040000025,62.87821679999979,65.22138670000277,65.19628229999944,,,,Casey,001,2025-03-08_17h57.48.792,pleaseworkstroopcontrol,2024.2.4,60.07857075424197,2025-03-08 17h58.03.975243 -0800,
test,inconsistent,10,green,yellow,word,z,800,2000,15,15,0,z,1,0.528410700000677,None,0,15,15,9,65.22138670000277,,,,,,,,,65.21771050000098,65.22138670000277,65.22138670000277,0.021060200000647455,65.4116224999998,65.4116224999998,65.76392280000073,z,1,0.528410700000677,None,1.039668715856771,65.76475090000167,65.77860340000188,66.8348459000008,66.79641270000138,,,,Casey,001,2025-03-08_17h57.48.792,pleaseworkstroopcontrol,2024.2.4,60.07857075424197,2025-03-08 17h58.03.975243 -0800,
test,inconsistent,11,green,red,word,z,800,2000,16,16,0,z,1,0.688827100002527,None,0,16,16,10,66.8348459000008,,,,,,,,,66.82915730000241,66.8348459000008,66.8348459000008,0.03280630000153906,67.01197840000168,67.01197840000168,67.53064580000137,z,1,0.688827100002527,None,2.8477420082539346,67.53129170000102,67.54529730000286,70.39127160000135,70.36316000000079,,,,Casey,001,2025-03-08_17h57.48.792,pleaseworkstroopcontrol,2024.2.4,60.07857075424197,2025-03-08 17h58.03.975243 -0800,
test,inconsistent,53,red,yellow,word,z,800,2000,17,17,0,z,1,0.789294999998674,None,0,17,17,52,70.39127160000135,,,,,,,,,70.38463530000081,70.39127160000135,70.39127160000135,0.021543999999266816,70.57915490000232,70.57915490000232,71.19764510000095,z,1,0.789294999998674,None,1.6683159727997983,71.19829680000112,71.2123317000005,72.92466100000092,72.86340460000065,,,,Casey,001,2025-03-08_17h57.48.792,pleaseworkstroopcontrol,2024.2.4,60.07857075424197,2025-03-08 17h58.03.975243 -0800,
test,consistent,1,red,red,word,m,800,2000,18,18,0,m,1,0.49149599999873317,None,0,18,18,0,72.92466100000092,,,,,,,,,72.91893710000295,72.92466100000092,72.92466100000092,0.0556070999991789,73.07925470000191,73.07925470000191,73.43123390000255,m,1,0.49149599999873317,None,5.855479982087521,73.43194530000255,73.44607270000051,79.34140110000226,79.28080469999986,,,,Casey,001,2025-03-08_17h57.48.792,pleaseworkstroopcontrol,2024.2.4,60.07857075424197,2025-03-08 17h58.03.975243 -0800,
test,consistent,46,yellow,yellow,word,m,800,2000,19,19,0,z,0,0.4652963999978965,None,0,19,19,45,79.34140110000226,,,,,,,,,79.33702130000165,79.34140110000226,79.34140110000226,0.055915200002345955,79.4962723000026,79.4962723000026,79.81578520000039,z,0,0.4652963999978965,None,4.570106055134264,79.81649820000166,79.82996640000056,84.40357930000027,84.38155010000264,,,,Casey,001,2025-03-08_17h57.48.792,pleaseworkstroopcontrol,2024.2.4,60.07857075424197,2025-03-08 17h58.03.975243 -0800,
test,inconsistent,33,yellow,green,word,z,800,2000,20,20,0,z,1,0.5961344999996072,None,0,20,20,32,84.40357930000027,,,,,,,,,84.39759490000142,84.40357930000027,84.40357930000027,0.016066000000137137,84.59660989999975,84.59660989999975,85.01623130000007,z,1,0.5961344999996072,None,1.5055388396576528,85.01690280000184,85.03040880000117,86.5842859000004,86.51425970000128,,,,Casey,001,2025-03-08_17h57.48.792,pleaseworkstroopcontrol,2024.2.4,60.07857075424197,2025-03-08 17h58.03.975243 -0800,
test,inconsistent,37,red,green,word,z,800,2000,21,21,0,z,1,0.6401278999983333,None,0,21,21,36,86.5842859000004,,,,,,,,,86.57754890000069,86.5842859000004,86.5842859000004,0.06358199999885983,86.71386470000289,86.71386470000289,87.23269240000081,z,1,0.6401278999983333,None,4.2531790034592944,87.23348299999998,87.24728930000128,91.54573730000266,91.4822122000005,,,,Casey,001,2025-03-08_17h57.48.792,pleaseworkstroopcontrol,2024.2.4,60.07857075424197,2025-03-08 17h58.03.975243 -0800,
test,consistent,41,green,green,word,m,800,2000,22,22,0,m,1,0.7536466000019573,None,0,22,22,40,91.54573730000266,,,,,,,,,91.53916110000137,91.54573730000266,91.54573730000266,0.056889699997555,91.6974571000028,91.6974571000028,92.316477700002,m,1,0.7536466000019573,None,2.1011838401877223,92.31731159999981,92.33122870000079,94.44372700000167,94.41598580000209,,,,Casey,001,2025-03-08_17h57.48.792,pleaseworkstroopcontrol,2024.2.4,60.07857075424197,2025-03-08 17h58.03.975243 -0800,
test,inconsistent,27,green,red,word,z,800,2000,23,23,0,z,1,0.5085260999985621,None,0,23,23,26,94.44372700000167,,,,,,,,,94.43769990000146,94.44372700000167,94.44372700000167,0.021731199998612283,94.63139450000017,94.63139450000017,94.96688809999978,z,1,0.5085260999985621,None,4.04607093728833,94.96753650000028,94.98146840000118,99.02877939999962,98.99917579999965,,,,Casey,001,2025-03-08_17h57.48.792,pleaseworkstroopcontrol,2024.2.4,60.07857075424197,2025-03-08 17h58.03.975243 -0800,
test,inconsistent,32,orange,green,word,z,800,2000,24,24,0,z,1,0.5348899999989953,None,0,24,24,31,99.02877939999962,,,,,,,,,99.02107760000217,99.02877939999962,99.02877939999962,0.02190120000159368,99.21499680000124,99.21499680000124,99.56757570000264,z,1,0.5348899999989953,None,5.80404856718146,99.56822430000102,99.5818943000013,105.43241200000193,105.36697350000031,,,,Casey,001,2025-03-08_17h57.48.792,pleaseworkstroopcontrol,2024.2.4,60.07857075424197,2025-03-08 17h58.03.975243 -0800,
test,consistent,47,blue,blue,word,m,800,2000,25,25,0,m,1,0.6341175000015937,None,0,25,25,46,105.43241200000193,,,,,,,,,105.42418910000197,105.43241200000193,105.43241200000193,0.05746079999880749,105.58227740000075,105.58227740000075,106.0835232999998,m,1,0.6341175000015937,None,5.28865037041797,106.08392740000272,106.0991995000004,111.40788740000062,111.36760929999946,,,,Casey,001,2025-03-08_17h57.48.792,pleaseworkstroopcontrol,2024.2.4,60.07857075424197,2025-03-08 17h58.03.975243 -0800,
test,inconsistent,19,green,red,word,z,800,2000,26,26,0,z,1,0.5765260000007402,None,0,26,26,18,111.40788740000062,,,,,,,,,111.40070800000103,111.40788740000062,111.40788740000062,0.033264599998801714,111.58313260000068,111.58313260000068,112.00215800000296,z,1,0.5765260000007402,None,3.1253888602824986,112.0028220000022,112.01647200000298,115.16933500000232,115.11782420000236,,,,Casey,001,2025-03-08_17h57.48.792,pleaseworkstroopcontrol,2024.2.4,60.07857075424197,2025-03-08 17h58.03.975243 -0800,
test,inconsistent,42,green,yellow,word,z,800,2000,27,27,0,z,1,0.6551776999986032,None,0,27,27,41,115.16933500000232,,,,,,,,,115.16242200000124,115.16933500000232,115.16933500000232,0.044558499997947365,115.33347240000148,115.33347240000148,115.83570900000268,z,1,0.6551776999986032,None,4.660273986337255,115.83645960000285,115.8501419000022,120.53721779999978,120.48495390000244,,,,Casey,001,2025-03-08_17h57.48.792,pleaseworkstroopcontrol,2024.2.4,60.07857075424197,2025-03-08 17h58.03.975243 -0800,
test,consistent,34,green,green,word,m,800,2000,28,28,0,m,1,0.5669366000001901,None,0,28,28,33,120.53721779999978,,,,,,,,,120.53140220000205,120.53721779999978,120.53721779999978,0.04632169999968028,120.7006306000003,120.7006306000003,121.11928260000059,m,1,0.5669366000001901,None,4.975016152921263,121.12000760000228,121.13415800000075,126.1264078000022,126.08555490000072,,,,Casey,001,2025-03-08_17h57.48.792,pleaseworkstroopcontrol,2024.2.4,60.07857075424197,2025-03-08 17h58.03.975243 -0800,
test,inconsistent,25,red,blue,word,z,800,2000,29,29,0,z,1,0.5599915999991936,None,0,29,29,24,126.1264078000022,,,,,,,,,126.12035000000105,126.1264078000022,126.1264078000022,0.03486759999941569,126.30128260000129,126.30128260000129,126.70359070000268,z,1,0.5599915999991936,None,5.941226204071021,126.70435170000201,126.71786030000294,132.65922560000035,132.63626769999973,,,,Casey,001,2025-03-08_17h57.48.792,pleaseworkstroopcontrol,2024.2.4,60.07857075424197,2025-03-08 17h58.03.975243 -0800,
test,consistent,18,red,red,word,m,800,2000,30,30,0,m,1,0.5114059000006819,None,0,30,30,17,132.65922560000035,,,,,,,,,132.65223100000003,132.65922560000035,132.65922560000035,0.01617669999905047,132.8520126000003,132.8520126000003,133.1875414999995,m,1,0.5114059000006819,None,5.938809945458076,133.18819240000084,133.2018566000006,139.16730430000098,139.1194187000001,,,,Casey,001,2025-03-08_17h57.48.792,pleaseworkstroopcontrol,2024.2.4,60.07857075424197,2025-03-08 17h58.03.975243 -0800,
test,inconsistent,29,green,blue,word,z,800,2000,31,31,0,z,1,0.5620710999974108,None,0,31,31,28,139.16730430000098,,,,,,,,,139.15983870000127,139.16730430000098,139.16730430000098,0.04073689999859198,139.31875650000075,139.31875650000075,139.7379843000017,z,1,0.5620710999974108,None,5.8744598948005144,139.73868589999984,139.7526484000009,145.63294730000052,145.60434689999965,,,,Casey,001,2025-03-08_17h57.48.792,pleaseworkstroopcontrol,2024.2.4,60.07857075424197,2025-03-08 17h58.03.975243 -0800,
test,consistent,45,red,red,word,m,800,2000,32,32,0,m,1,0.624255799997627,None,0,32,32,44,145.63294730000052,,,,,,,,,145.62661560000197,145.63294730000052,145.63294730000052,0.022428199998103082,145.81960439999966,145.81960439999966,146.27195660000143,m,1,0.624255799997627,None,1.1099375201428092,146.2726017999994,146.28678990000117,147.39549160000024,147.37080609999975,,,,Casey,001,2025-03-08_17h57.48.792,pleaseworkstroopcontrol,2024.2.4,60.07857075424197,2025-03-08 17h58.03.975243 -0800,
test,consistent,51,red,red,word,m,800,2000,33,33,0,m,1,0.507364699999016,None,0,33,33,50,147.39549160000024,,,,,,,,,147.3894515000029,147.39549160000024,147.39549160000024,0.018706099999690196,147.5866425000022,147.5866425000022,147.90446000000156,m,1,0.507364699999016,None,1.2067985739650995,147.90504910000163,147.91961530000117,149.1319779000005,149.10476070000004,,,,Casey,001,2025-03-08_17h57.48.792,pleaseworkstroopcontrol,2024.2.4,60.07857075424197,2025-03-08 17h58.03.975243 -0800,
test,inconsistent,5,orange,blue,word,z,800,2000,34,34,0,z,1,0.688260300001275,None,0,34,34,4,149.1319779000005,,,,,,,,,149.12555770000108,149.1319779000005,149.1319779000005,0.020767699999851175,149.3200452000019,149.3200452000019,149.82273400000122,z,1,0.688260300001275,None,2.730085826839831,149.82362550000107,149.83686189999935,152.57093610000084,152.53815400000167,,,,Casey,001,2025-03-08_17h57.48.792,pleaseworkstroopcontrol,2024.2.4,60.07857075424197,2025-03-08 17h58.03.975243 -0800,
test,consistent,49,yellow,yellow,word,m,800,2000,35,35,0,m,1,0.567413700002362,None,0,35,35,48,152.57093610000084,,,,,,,,,152.56373430000167,152.57093610000084,152.57093610000084,0.02557869999873219,152.75373039999977,152.75373039999977,153.15603770000234,m,1,0.567413700002362,None,4.388356140271594,153.1568017999998,153.17026700000133,157.56602380000186,157.53890370000227,,,,Casey,001,2025-03-08_17h57.48.792,pleaseworkstroopcontrol,2024.2.4,60.07857075424197,2025-03-08 17h58.03.975243 -0800,
test,inconsistent,3,blue,red,word,z,800,2000,36,36,0,z,1,0.5056534999966971,None,0,36,36,2,157.56602380000186,,,,,,,,,157.56027710000126,157.56602380000186,157.56602380000186,0.02150170000095386,157.7544865000018,157.7544865000018,158.08964720000222,z,1,0.5056534999966971,None,4.8959676043333875,158.0903689000006,158.1045026000029,163.0024426000018,162.97247450000214,,,,Casey,001,2025-03-08_17h57.48.792,pleaseworkstroopcontrol,2024.2.4,60.07857075424197,2025-03-08 17h58.03.975243 -0800,
test,inconsistent,44,green,red,word,z,800,2000,37,37,0,z,1,0.5845560000016121,None,0,37,37,43,163.0024426000018,,,,,,,,,162.99515930000052,163.0024426000018,163.0024426000018,0.022857699997985037,163.18816380000135,163.18816380000135,163.5901699999995,z,1,0.5845560000016121,None,5.651023606336409,163.59097649999967,163.60479309999937,169.26883100000123,169.2402691999996,,,,Casey,001,2025-03-08_17h57.48.792,pleaseworkstroopcontrol,2024.2.4,60.07857075424197,2025-03-08 17h58.03.975243 -0800,
test,inconsistent,52,red,green,word,z,800,2000,38,38,0,z,1,0.6012854999971751,None,0,38,38,51,169.26883100000123,,,,,,,,,169.26275259999966,169.26883100000123,169.26883100000123,0.022509400001581525,169.4555075999997,169.4555075999997,169.8743835000023,z,1,0.6012854999971751,None,2.9117698886694363,169.87521470000138,169.88878040000054,172.80294960000174,172.77330240000083,,,,Casey,001,2025-03-08_17h57.48.792,pleaseworkstroopcontrol,2024.2.4,60.07857075424197,2025-03-08 17h58.03.975243 -0800,
test,consistent,12,yellow,yellow,word,m,800,2000,39,39,0,m,1,0.6728521000004548,None,0,39,39,11,172.80294960000174,,,,,,,,,172.7971045000013,172.80294960000174,172.80294960000174,0.0237252000006265,172.98903849999988,172.98903849999988,173.49146120000296,m,1,0.6728521000004548,None,3.878081372035916,173.49230220000027,173.50582670000222,177.38608810000005,177.35789479999949,,,,Casey,001,2025-03-08_17h57.48.792,pleaseworkstroopcontrol,2024.2.4,60.07857075424197,2025-03-08 17h58.03.975243 -0800,
test,inconsistent,50,yellow,green,word,z,800,2000,40,40,0,z,1,0.7228598999972746,None,0,40,40,49,177.38608810000005,,,,,,,,,177.3792710000016,177.38608810000005,177.38608810000005,0.02165180000156397,177.57237449999957,177.57237449999957,178.12455110000155,z,1,0.7228598999972746,None,3.0150721479262392,178.12515239999993,178.13974820000294,181.1490612000016,181.12428510000245,,,,Casey,001,2025-03-08_17h57.48.792,pleaseworkstroopcontrol,2024.2.4,60.07857075424197,2025-03-08 17h58.03.975243 -0800,
test,inconsistent,14,yellow,blue,word,z,800,2000,41,41,0,z,1,0.5591042000014568,None,0,41,41,13,181.1490612000016,,,,,,,,,181.14298030000282,181.1490612000016,181.1490612000016,0.018851900000299793,181.34002090000286,181.34002090000286,181.72510030000194,z,1,0.5591042000014568,None,1.469597663495283,181.72578330000033,181.73995970000033,183.22419330000048,183.19137469999987,,,,Casey,001,2025-03-08_17h57.48.792,pleaseworkstroopcontrol,2024.2.4,60.07857075424197,2025-03-08 17h58.03.975243 -0800,
test,inconsistent,13,purple,red,word,z,800,2000,42,42,0,z,1,0.5008851999991748,None,0,42,42,12,183.22419330000048,,,,,,,,,183.21848300000056,183.22419330000048,183.22419330000048,0.027121300001454074,183.40681680000125,183.40681680000125,183.74234179999985,z,1,0.5008851999991748,None,4.677554766865752,183.74307950000002,183.75669639999978,188.46898440000223,188.40838820000135,,,,Casey,001,2025-03-08_17h57.48.792,pleaseworkstroopcontrol,2024.2.4,60.07857075424197,2025-03-08 17h58.03.975243 -0800,
test,inconsistent,22,red,yellow,word,z,800,2000,43,43,0,z,1,0.8590641000009782,None,0,43,43,21,188.46898440000223,,,,,,,,,188.4619444000018,188.46898440000223,188.46898440000223,0.05376030000115861,188.6242037000011,188.6242037000011,189.34270070000275,z,1,0.8590641000009782,None,5.082719228463635,189.34346899999946,189.35759920000055,194.46119399999952,194.42578910000157,,,,Casey,001,2025-03-08_17h57.48.792,pleaseworkstroopcontrol,2024.2.4,60.07857075424197,2025-03-08 17h58.03.975243 -0800,
test,consistent,28,yellow,yellow,word,m,800,2000,44,44,0,z,0,0.45104039999932866,None,0,44,44,27,194.46119399999952,,,,,,,,,194.45564809999996,194.46119399999952,194.46119399999952,0.029642199999216245,194.6408541000019,194.6408541000019,194.9261609000023,z,0,0.45104039999932866,None,3.8186508415706624,194.92670590000125,194.94088349999947,198.77225920000274,198.74263319999955,,,,Casey,001,2025-03-08_17h57.48.792,pleaseworkstroopcontrol,2024.2.4,60.07857075424197,2025-03-08 17h58.03.975243 -0800,
test,inconsistent,56,green,red,word,z,800,2000,45,45,0,z,1,0.5649548000001232,None,0,45,45,55,198.77225920000274,,,,,,,,,198.76502170000094,198.77225920000274,198.77225920000274,0.022654899999906775,198.95824070000162,198.95824070000162,199.34367960000236,z,1,0.5649548000001232,None,4.946964376394144,199.3443514999999,199.3584617000015,204.30434500000047,204.27645889999985,,,,Casey,001,2025-03-08_17h57.48.792,pleaseworkstroopcontrol,2024.2.4,60.07857075424197,2025-03-08 17h58.03.975243 -0800,
test,inconsistent,31,yellow,red,word,z,800,2000,46,46,0,z,1,0.5488613999987138,None,0,46,46,30,204.30434500000047,,,,,,,,,204.29820400000244,204.30434500000047,204.30434500000047,0.021715300001233118,204.49212510000143,204.49212510000143,204.8610546000018,z,1,0.5488613999987138,None,4.9422131009799255,204.86170200000197,204.87546190000285,209.82227319999947,209.7938060000015,,,,Casey,001,2025-03-08_17h57.48.792,pleaseworkstroopcontrol,2024.2.4,60.07857075424197,2025-03-08 17h58.03.975243 -0800,
test,inconsistent,30,blue,red,word,z,800,2000,47,47,0,z,1,0.5030454000007012,None,0,47,47,29,209.82227319999947,,,,,,,,,209.81561599999986,209.82227319999947,209.82227319999947,0.021907700000156183,210.0092528999994,210.0092528999994,210.32856100000208,z,1,0.5030454000007012,None,2.3011362758134224,210.32929280000099,210.3426373000002,212.66558240000086,212.627625000001,,,,Casey,001,2025-03-08_17h57.48.792,pleaseworkstroopcontrol,2024.2.4,60.07857075424197,2025-03-08 17h58.03.975243 -0800,
test,consistent,40,yellow,yellow,word,m,800,2000,48,48,0,m,1,0.5428214999992633,None,0,48,48,39,212.66558240000086,,,,,,,,,212.65797310000198,212.66558240000086,212.66558240000086,0.030512900000758236,212.84302150000076,212.84302150000076,213.21217030000116,m,1,0.5428214999992633,None,3.051030266462588,213.21320630000264,213.22624930000165,216.30634940000164,216.26111570000285,,,,Casey,001,2025-03-08_17h57.48.792,pleaseworkstroopcontrol,2024.2.4,60.07857075424197,2025-03-08 17h58.03.975243 -0800,
test,consistent,54,green,green,word,m,800,2000,49,49,0,m,1,0.6382140000023355,None,0,49,49,53,216.30634940000164,,,,,,,,,216.29974010000296,216.30634940000164,216.30634940000164,0.038519099998666206,216.47654669999974,216.47654669999974,216.96194150000156,m,1,0.6382140000023355,None,5.784971002313069,216.9627513000014,216.97680260000197,222.80271030000222,222.7450024000027,,,,Casey,001,2025-03-08_17h57.48.792,pleaseworkstroopcontrol,2024.2.4,60.07857075424197,2025-03-08 17h58.03.975243 -0800,
test,inconsistent,55,green,yellow,word,z,800,2000,50,50,0,z,1,0.7344302999990759,None,0,50,50,54,222.80271030000222,,,,,,,,,222.79676670000117,222.80271030000222,222.80271030000222,0.051749099999142345,222.96070429999963,222.96070429999963,223.54640520000248,z,1,0.7344302999990759,None,5.943042214504397,223.54727370000182,223.5604475,229.50675740000224,229.47918969999955,,,,Casey,001,2025-03-08_17h57.48.792,pleaseworkstroopcontrol,2024.2.4,60.07857075424197,2025-03-08 17h58.03.975243 -0800,
test,inconsistent,24,blue,green,word,z,800,2000,51,51,0,z,1,0.6100162000002456,None,0,51,51,23,229.50675740000224,,,,,,,,,229.50030210000114,229.50675740000224,229.50675740000224,0.021273600003041793,229.69480100000146,229.69480100000146,230.13024820000282,z,1,0.6100162000002456,None,2.4620811823921454,230.1308925000012,230.14473139999973,232.6075966999997,232.5793717000015,,,,Casey,001,2025-03-08_17h57.48.792,pleaseworkstroopcontrol,2024.2.4,60.07857075424197,2025-03-08 17h58.03.975243 -0800,
test,inconsistent,6,red,yellow,word,z,800,2000,52,52,0,z,1,0.6154937999999675,None,0,52,52,5,232.6075966999997,,,,,,,,,232.6010047000018,232.6075966999997,232.6075966999997,0.021714100003009662,232.7949953999996,232.7949953999996,233.23077589999957,z,1,0.6154937999999675,None,1.825478826754256,233.23154559999966,233.2451512000007,235.07517870000083,235.04635680000138,,,,Casey,001,2025-03-08_17h57.48.792,pleaseworkstroopcontrol,2024.2.4,60.07857075424197,2025-03-08 17h58.03.975243 -0800,
test,inconsistent,15,yellow,red,word,z,800,2000,53,53,0,z,1,0.5058810000009544,None,0,53,53,14,235.07517870000083,,,,,,,,,235.06779190000088,235.07517870000083,235.07517870000083,0.021636600002238993,235.26164000000063,235.26164000000063,235.59722460000194,z,1,0.5058810000009544,None,4.928202895446211,235.5978971000004,235.6117935000002,240.53993730000002,240.51340999999957,,,,Casey,001,2025-03-08_17h57.48.792,pleaseworkstroopcontrol,2024.2.4,60.07857075424197,2025-03-08 17h58.03.975243 -0800,
test,consistent,36,red,red,word,m,800,2000,54,54,0,m,1,0.6618879999987257,None,0,54,54,35,240.53993730000002,,,,,,,,,240.53335540000262,240.53993730000002,240.53993730000002,0.020193500000459608,240.72910790000242,240.72910790000242,241.2142085000014,m,1,0.6618879999987257,None,4.729773938093738,241.21499519999998,241.229057200002,245.9535348999998,245.93087220000234,,,,Casey,001,2025-03-08_17h57.48.792,pleaseworkstroopcontrol,2024.2.4,60.07857075424197,2025-03-08 17h58.03.975243 -0800,
test,consistent,35,red,red,word,m,800,2000,55,55,0,m,1,0.5760372000004281,None,0,55,55,34,245.9535348999998,,,,,,,,,245.94747460000144,245.9535348999998,245.9535348999998,0.016709899999113986,246.1461659000015,246.1461659000015,246.53286740000112,m,1,0.5760372000004281,None,5.27652838466714,246.5338941000009,246.5462652999995,251.8339255000028,251.79795340000055,,,,Casey,001,2025-03-08_17h57.48.792,pleaseworkstroopcontrol,2024.2.4,60.07857075424197,2025-03-08 17h58.03.975243 -0800,
test,inconsistent,2,yellow,green,word,z,800,2000,56,56,0,z,1,0.5595593999969424,None,0,56,56,1,251.8339255000028,,,,,,,,,251.82741660000102,251.8339255000028,251.8339255000028,0.02938910000011674,252.0134629000022,252.0134629000022,252.39909100000295,z,1,0.5595593999969424,None,2.8179468812509105,252.39987370000017,252.41358730000138,255.24178820000088,255.21470090000003,,,,Casey,001,2025-03-08_17h57.48.792,pleaseworkstroopcontrol,2024.2.4,60.07857075424197,2025-03-08 17h58.03.975243 -0800,
test,inconsistent,16,red,green,word,z,800,2000,57,57,0,z,1,0.6072690000000875,None,0,57,57,15,255.24178820000088,,,,,,,,,255.23535300000003,255.24178820000088,255.24178820000088,0.020842300000367686,255.43068499999936,255.43068499999936,255.86584539999967,z,1,0.6072690000000875,None,1.6893424408818594,255.8665142000027,255.88050640000074,257.57775200000106,257.5484730999997,,,,Casey,001,2025-03-08_17h57.48.792,pleaseworkstroopcontrol,2024.2.4,60.07857075424197,2025-03-08 17h58.03.975243 -0800,
test,inconsistent,48,yellow,red,word,z,800,2000,58,58,0,z,1,0.6241010000012466,None,0,58,58,47,257.57775200000106,,,,,,,,,257.56964040000094,257.57775200000106,257.57775200000106,0.021490500002983026,257.7634801000022,257.7634801000022,258.2159216,z,1,0.6241010000012466,None,1.6134520216489419,258.21672150000086,258.2308112999999,259.84746200000154,259.8152258000009,,,,Casey,001,2025-03-08_17h57.48.792,pleaseworkstroopcontrol,2024.2.4,60.07857075424197,2025-03-08 17h58.03.975243 -0800,
test,inconsistent,32,orange,green,word,z,800,2000,59,0,1,z,1,0.6420944000019517,None,1,0,59,31,259.84746200000154,,,,,,,,,259.839123400001,259.84746200000154,259.84746200000154,0.02411500000016531,260.03091830000267,260.03091830000267,260.50013540000145,z,1,0.6420944000019517,None,1.3202253399130028,260.5009424000018,260.5142190000006,261.8642002000015,261.81570900000224,,,,Casey,001,2025-03-08_17h57.48.792,pleaseworkstroopcontrol,2024.2.4,60.07857075424197,2025-03-08 17h58.03.975243 -0800,
test,inconsistent,52,red,green,word,z,800,2000,60,1,1,z,1,0.6782775000028778,None,1,1,60,51,261.8642002000015,,,,,,,,,261.85831170000165,261.8642002000015,261.8642002000015,0.042274300001736265,262.0311145000014,262.0311145000014,262.5499251000001,z,1,0.6782775000028778,None,1.4442905734306601,262.5508402000014,262.5645058000009,264.0212747000005,263.9822579000029,,,,Casey,001,2025-03-08_17h57.48.792,pleaseworkstroopcontrol,2024.2.4,60.07857075424197,2025-03-08 17h58.03.975243 -0800,
test,inconsistent,55,green,yellow,word,z,800,2000,61,2,1,z,1,0.6763448999990942,None,1,2,61,54,264.0212747000005,,,,,,,,,264.01418390000254,264.0212747000005,264.0212747000005,0.031904499999654945,264.19801240000015,264.19801240000015,264.7007056000002,z,1,0.6763448999990942,None,4.291081979278497,264.70137690000047,264.71478410000054,269.00238850000096,268.98261320000165,,,,Casey,001,2025-03-08_17h57.48.792,pleaseworkstroopcontrol,2024.2.4,60.07857075424197,2025-03-08 17h58.03.975243 -0800,
test,consistent,41,green,green,word,m,800,2000,62,3,1,m,1,0.6479650999972364,None,1,3,62,40,269.00238850000096,,,,,,,,,268.9977217000014,269.00238850000096,269.00238850000096,0.014771900001505855,269.1985722000027,269.1985722000027,269.667338700001,m,1,0.6479650999972364,None,2.609830510939681,269.6680145999999,269.6819490000016,272.30539599999975,272.2675101999994,,,,Casey,001,2025-03-08_17h57.48.792,pleaseworkstroopcontrol,2024.2.4,60.07857075424197,2025-03-08 17h58.03.975243 -0800,
test,inconsistent,20,red,green,word,z,800,2000,63,4,1,z,1,0.5314911999994365,None,1,4,63,19,272.30539599999975,,,,,,,,,272.29887390000295,272.30539599999975,272.30539599999975,0.031326200001785764,272.4819165000008,272.4819165000008,272.8510361000008,z,1,0.5314911999994365,None,3.378282454900544,272.8517271000019,272.8658144000001,276.2451394000018,276.2170130000013,,,,Casey,001,2025-03-08_17h57.48.792,pleaseworkstroopcontrol,2024.2.4,60.07857075424197,2025-03-08 17h58.03.975243 -0800,
test,inconsistent,10,green,yellow,word,z,800,2000,64,5,1,z,1,0.5646995000024617,None,1,5,64,9,276.2451394000018,,,,,,,,,276.23980590000065,276.2451394000018,276.2451394000018,0.022817599998234073,276.43243350000193,276.43243350000193,276.81808079999973,z,1,0.5646995000024617,None,5.820005467512255,276.81884450000143,276.8324560000001,282.6610443999998,282.6340904000026,,,,Casey,001,2025-03-08_17h57.48.792,pleaseworkstroopcontrol,2024.2.4,60.07857075424197,2025-03-08 17h58.03.975243 -0800,
test,consistent,36,red,red,word,m,800,2000,65,6,1,m,1,0.8094703999995545,None,1,6,65,35,282.6610443999998,,,,,,,,,282.6545718000016,282.6610443999998,282.6610443999998,0.02062840000144206,282.84984030000123,282.84984030000123,283.4838888000013,m,1,0.8094703999995545,None,5.330207625012519,283.48440760000085,283.49954550000257,288.8393203000014,288.8018273000016,,,,Casey,001,2025-03-08_17h57.48.792,pleaseworkstroopcontrol,2024.2.4,60.07857075424197,2025-03-08 17h58.03.975243 -0800,
test,consistent,12,yellow,yellow,word,m,800,2000,66,7,1,m,1,0.5226312999984657,None,1,7,66,11,288.8393203000014,,,,,,,,,288.83207890000267,288.8393203000014,288.8393203000014,0.030293199997686315,289.0171943999994,289.0171943999994,289.36983730000065,m,1,0.5226312999984657,None,4.390710611402589,289.37053709999964,289.38362880000204,293.7820279000007,293.7521626000016,,,,Casey,001,2025-03-08_17h57.48.792,pleaseworkstroopcontrol,2024.2.4,60.07857075424197,2025-03-08 17h58.03.975243 -0800,
test,inconsistent,4,red,green,word,z,800,2000,67,8,1,z,1,0.5387401999978465,None,1,8,67,3,293.7820279000007,,,,,,,,,293.77534190000006,293.7820279000007,293.7820279000007,0.02310620000207564,293.96778760000234,293.96778760000234,294.33636820000174,z,1,0.5387401999978465,None,3.508127679033809,294.33731310000076,294.35113980000096,297.8679187000016,297.8358139000011,,,,Casey,001,2025-03-08_17h57.48.792,pleaseworkstroopcontrol,2024.2.4,60.07857075424197,2025-03-08 17h58.03.975243 -0800,
test,inconsistent,3,blue,red,word,z,800,2000,68,9,1,z,1,0.5823323000004166,None,1,9,68,2,297.8679187000016,,,,,,,,,297.8608005999995,297.8679187000016,297.8679187000016,0.025126799999270588,298.05147900000156,298.05147900000156,298.45396710000205,z,1,0.5823323000004166,None,3.792340626301107,298.4547926000014,298.4684038000014,302.27558520000093,302.2360210000006,,,,Casey,001,2025-03-08_17h57.48.792,pleaseworkstroopcontrol,2024.2.4,60.07857075424197,2025-03-08 17h58.03.975243 -0800,
test,inconsistent,42,green,yellow,word,z,800,2000,69,10,1,z,1,0.48973040000055335,None,1,10,69,41,302.27558520000093,,,,,,,,,302.2697862999994,302.27558520000093,302.27558520000093,0.03366489999825717,302.4517592000011,302.4517592000011,302.7708700000003,z,1,0.48973040000055335,None,3.36144799166617,302.77151140000205,302.784959800003,306.1525470000015,306.11991000000125,,,,Casey,001,2025-03-08_17h57.48.792,pleaseworkstroopcontrol,2024.2.4,60.07857075424197,2025-03-08 17h58.03.975243 -0800,
test,inconsistent,53,red,yellow,word,z,800,2000,70,11,1,z,1,0.5874650000005204,None,1,11,70,52,306.1525470000015,,,,,,,,,306.1458113000008,306.1525470000015,306.1525470000015,0.02608400000099209,306.3352006000023,306.3352006000023,306.7546958000021,z,1,0.5874650000005204,None,4.702553517526633,306.75541169999997,306.7688651000026,311.48375040000246,311.45402230000036,,,,Casey,001,2025-03-08_17h57.48.792,pleaseworkstroopcontrol,2024.2.4,60.07857075424197,2025-03-08 17h58.03.975243 -0800,
test,inconsistent,11,green,red,word,z,800,2000,71,12,1,z,1,0.5292967999994289,None,1,12,71,10,311.48375040000246,,,,,,,,,311.4767442000011,311.48375040000246,311.48375040000246,0.022840899997390807,311.66932240000096,311.66932240000096,312.02152710000155,z,1,0.5292967999994289,None,2.7190091890128265,312.02224820000265,312.03594350000276,314.77508020000096,314.7372319999995,,,,Casey,001,2025-03-08_17h57.48.792,pleaseworkstroopcontrol,2024.2.4,60.07857075424197,2025-03-08 17h58.03.975243 -0800,
test,inconsistent,25,red,blue,word,z,800,2000,72,13,1,z,1,0.6240364000004774,None,1,13,72,24,314.77508020000096,,,,,,,,,314.76845390000017,314.77508020000096,314.77508020000096,0.031040500001836335,314.9530482000009,314.9530482000009,315.4052842000019,z,1,0.6240364000004774,None,3.0170307543180126,315.40604840000015,315.4199202000018,318.44510210000226,318.4207153000025,,,,Casey,001,2025-03-08_17h57.48.792,pleaseworkstroopcontrol,2024.2.4,60.07857075424197,2025-03-08 17h58.03.975243 -0800,
test,inconsistent,29,green,blue,word,z,800,2000,73,14,1,z,1,0.6063460000004852,None,1,14,73,28,318.44510210000226,,,,,,,,,318.43928629999937,318.44510210000226,318.44510210000226,0.018756699999357807,318.6365977000023,318.6365977000023,319.05566100000215,z,1,0.6063460000004852,None,1.6307666428686782,319.0564109000006,319.0702822000021,320.7006982000021,320.6716130999994,,,,Casey,001,2025-03-08_17h57.48.792,pleaseworkstroopcontrol,2024.2.4,60.07857075424197,2025-03-08 17h58.03.975243 -0800,
test,inconsistent,6,red,yellow,word,z,800,2000,74,15,1,z,1,0.5977682000011555,None,1,15,74,5,320.7006982000021,,,,,,,,,320.69394640000246,320.7006982000021,320.7006982000021,0.022313500001473585,320.8868723000014,320.8868723000014,321.30573899999945,z,1,0.5977682000011555,None,1.932586622268602,321.30660960000023,321.32040960000086,323.26671850000275,323.23835210000107,,,,Casey,001,2025-03-08_17h57.48.792,pleaseworkstroopcontrol,2024.2.4,60.07857075424197,2025-03-08 17h58.03.975243 -0800,
test,consistent,38,blue,blue,word,m,800,2000,75,16,1,m,1,0.786137700000836,None,1,16,75,37,323.26671850000275,,,,,,,,,323.2602630000001,323.26671850000275,323.26671850000275,0.02190340000015567,323.4540758000003,323.4540758000003,324.05600179999965,m,1,0.786137700000836,None,2.7432311305283887,324.0566598000005,324.0705852000028,326.82151780000277,326.78885040000023,,,,Casey,001,2025-03-08_17h57.48.792,pleaseworkstroopcontrol,2024.2.4,60.07857075424197,2025-03-08 17h58.03.975243 -0800,
test,inconsistent,13,purple,red,word,z,800,2000,76,17,1,z,1,0.49726229999942007,None,1,17,76,12,326.82151780000277,,,,,,,,,326.8125736000002,326.82151780000277,326.82151780000277,0.024003299997275462,327.0041908000021,327.0041908000021,327.32294150000234,z,1,0.49726229999942007,None,5.9865544343944155,327.32368359999964,327.3373888999995,333.3435126000004,333.30603410000185,,,,Casey,001,2025-03-08_17h57.48.792,pleaseworkstroopcontrol,2024.2.4,60.07857075424197,2025-03-08 17h58.03.975243 -0800,
test,consistent,40,yellow,yellow,word,m,800,2000,77,18,1,z,0,0.498614500000258,None,1,18,77,39,333.3435126000004,,,,,,,,,333.3369711000014,333.3435126000004,333.3435126000004,0.03086500000063097,333.5215457000013,333.5215457000013,333.85706840000057,z,0,0.498614500000258,None,4.5092227167602275,333.85775320000175,333.87173050000274,338.3933923000004,338.35673250000036,,,,Casey,001,2025-03-08_17h57.48.792,pleaseworkstroopcontrol,2024.2.4,60.07857075424197,2025-03-08 17h58.03.975243 -0800,
test,consistent,18,red,red,word,m,800,2000,78,19,1,m,1,0.5818904000007024,None,1,19,78,17,338.3933923000004,,,,,,,,,338.3865942000011,338.3933923000004,338.3933923000004,0.030106499998510117,338.57225050000125,338.57225050000125,338.99062530000083,m,1,0.5818904000007024,None,5.4582707993144055,338.9913766000027,339.0054584000027,344.4736430000012,344.4396624000001,,,,Casey,001,2025-03-08_17h57.48.792,pleaseworkstroopcontrol,2024.2.4,60.07857075424197,2025-03-08 17h58.03.975243 -0800,
test,consistent,23,green,green,word,m,800,2000,79,20,1,m,1,0.5868319000001065,None,1,20,79,22,344.4736430000012,,,,,,,,,344.4690178000019,344.4736430000012,344.4736430000012,0.029316299998754403,344.65596110000115,344.65596110000115,345.07445160000134,m,1,0.5868319000001065,None,1.2000757860309754,345.0751067000019,345.08924079999997,346.3054521000013,346.2741308000004,,,,Casey,001,2025-03-08_17h57.48.792,pleaseworkstroopcontrol,2024.2.4,60.07857075424197,2025-03-08 17h58.03.975243 -0800,
test,consistent,28,yellow,yellow,word,m,800,2000,80,21,1,m,1,0.5198218999976234,None,1,21,80,27,346.3054521000013,,,,,,,,,346.2983419000011,346.3054521000013,346.3054521000013,0.024391399998421548,346.48919840000235,346.48919840000235,346.8413352000025,m,1,0.5198218999976234,None,1.3922599364977715,346.8419752000009,346.85605120000037,348.2627009000025,348.2241428000016,,,,Casey,001,2025-03-08_17h57.48.792,pleaseworkstroopcontrol,2024.2.4,60.07857075424197,2025-03-08 17h58.03.975243 -0800,
test,inconsistent,30,blue,red,word,z,800,2000,81,22,1,z,1,0.6247148999973433,None,1,22,81,29,348.2627009000025,,,,,,,,,348.2564181000016,348.2627009000025,348.2627009000025,0.03229970000029425,348.43962920000195,348.43962920000195,348.8916124000025,z,1,0.6247148999973433,None,2.966593957914085,348.8923840000025,348.90635100000145,351.89914730000237,351.85794910000186,,,,Casey,001,2025-03-08_17h57.48.792,pleaseworkstroopcontrol,2024.2.4,60.07857075424197,2025-03-08 17h58.03.975243 -0800,
test,inconsistent,39,red,yellow,word,z,800,2000,82,23,1,z,1,0.5743615999999747,None,1,23,82,38,351.89914730000237,,,,,,,,,351.89214100000027,351.89914730000237,351.89914730000237,0.03471779999745195,352.0733798000001,352.0733798000001,352.4760833,z,1,0.5743615999999747,None,1.8985772813650783,352.47695170000225,352.4899332999994,354.4100182000002,354.3748264999995,,,,Casey,001,2025-03-08_17h57.48.792,pleaseworkstroopcontrol,2024.2.4,60.07857075424197,2025-03-08 17h58.03.975243 -0800,
test,inconsistent,8,black,yellow,word,z,800,2000,83,24,1,z,1,0.5636124999982712,None,1,24,83,7,354.4100182000002,,,,,,,,,354.40334820000135,354.4100182000002,354.4100182000002,0.02858589999959804,354.5899759000022,354.5899759000022,354.97622500000216,z,1,0.5636124999982712,None,5.52834044286683,354.97725770000034,354.98999190000177,360.52416749999975,360.49168850000206,,,,Casey,001,2025-03-08_17h57.48.792,pleaseworkstroopcontrol,2024.2.4,60.07857075424197,2025-03-08 17h58.03.975243 -0800,
test,consistent,54,green,green,word,m,800,2000,84,25,1,m,1,0.5667514999986452,None,1,25,84,53,360.52416749999975,,,,,,,,,360.51670300000114,360.52416749999975,360.52416749999975,0.025333599998702994,360.7075698000008,360.7075698000008,361.0937219000007,m,1,0.5667514999986452,None,1.8998985944972877,361.0944928000026,361.10753770000156,363.03642150000087,362.9920015000025,,,,Casey,001,2025-03-08_17h57.48.792,pleaseworkstroopcontrol,2024.2.4,60.07857075424197,2025-03-08 17h58.03.975243 -0800,
test,inconsistent,2,yellow,green,word,z,800,2000,85,26,1,z,1,0.7536696999995911,None,1,26,85,1,363.03642150000087,,,,,,,,,363.0291193000012,363.03642150000087,363.03642150000087,0.0371344000013778,363.2080660000029,363.2080660000029,363.79329470000084,z,1,0.7536696999995911,None,5.729691590849693,363.7941009000024,363.8078495000009,369.5409978000025,369.5097026000003,,,,Casey,001,2025-03-08_17h57.48.792,pleaseworkstroopcontrol,2024.2.4,60.07857075424197,2025-03-08 17h58.03.975243 -0800,
test,consistent,35,red,red,word,m,800,2000,86,27,1,m,1,0.5563071999968088,None,1,27,86,34,369.5409978000025,,,,,,,,,369.5345957999998,369.5409978000025,369.5409978000025,0.025008799999341136,369.72507450000194,369.72507450000194,370.11062610000226,m,1,0.5563071999968088,None,2.0056249970321627,370.1115112000007,370.1254850000005,372.1466971000009,372.10989560000235,,,,Casey,001,2025-03-08_17h57.48.792,pleaseworkstroopcontrol,2024.2.4,60.07857075424197,2025-03-08 17h58.03.975243 -0800,
test,inconsistent,16,red,green,word,z,800,2000,87,28,1,z,1,0.5444800000004761,None,1,28,87,15,372.1466971000009,,,,,,,,,372.14082150000104,372.1466971000009,372.1466971000009,0.031026000000565546,372.32536009999967,372.32536009999967,372.69434080000065,z,1,0.5444800000004761,None,3.024280676991203,372.69514640000125,372.7087477000023,375.7396031999997,375.71015290000287,,,,Casey,001,2025-03-08_17h57.48.792,pleaseworkstroopcontrol,2024.2.4,60.07857075424197,2025-03-08 17h58.03.975243 -0800,
test,consistent,7,green,green,word,m,800,2000,88,29,1,m,1,0.6052279000032286,None,1,29,88,6,375.7396031999997,,,,,,,,,375.7323415999999,375.7396031999997,375.7396031999997,0.022476399997685803,375.92569410000215,375.92569410000215,376.3610021000022,m,1,0.6052279000032286,None,5.502866731986781,376.3617027,376.375674400002,381.8904758000026,381.86077900000237,,,,Casey,001,2025-03-08_17h57.48.792,pleaseworkstroopcontrol,2024.2.4,60.07857075424197,2025-03-08 17h58.03.975243 -0800,
test,consistent,46,yellow,yellow,word,m,800,2000,89,30,1,m,1,0.5854016000012052,None,1,30,89,45,381.8904758000026,,,,,,,,,381.88393519999954,381.8904758000026,381.8904758000026,0.023276199997781077,382.07630540000173,382.07630540000173,382.47885830000087,m,1,0.5854016000012052,None,1.9615243049169115,382.47953380000035,382.49295170000187,384.45564560000275,384.4276890000001,,,,Casey,001,2025-03-08_17h57.48.792,pleaseworkstroopcontrol,2024.2.4,60.07857075424197,2025-03-08 17h58.03.975243 -0800,
test,inconsistent,27,green,red,word,z,800,2000,90,31,1,z,1,0.8282550000003539,None,1,31,90,26,384.45564560000275,,,,,,,,,384.4483201000003,384.45564560000275,384.45564560000275,0.020907699999952456,384.6431298999996,384.6431298999996,385.2952471000026,z,1,0.8282550000003539,None,3.2358655617883767,385.2959980000014,385.30993450000096,388.55704590000096,388.5281780000005,,,,Casey,001,2025-03-08_17h57.48.792,pleaseworkstroopcontrol,2024.2.4,60.07857075424197,2025-03-08 17h58.03.975243 -0800,
test,inconsistent,21,black,yellow,word,z,800,2000,91,32,1,z,1,0.5074500000009721,None,1,32,91,20,388.55704590000096,,,,,,,,,388.54974270000093,388.55704590000096,388.55704590000096,0.021742299999459647,388.7434248999998,388.7434248999998,389.0787588000021,z,1,0.5074500000009721,None,4.225035477298501,389.0795047000029,389.09353740000006,393.32894990000204,393.2948725000024,,,,Casey,001,2025-03-08_17h57.48.792,pleaseworkstroopcontrol,2024.2.4,60.07857075424197,2025-03-08 17h58.03.975243 -0800,
test,inconsistent,5,orange,blue,word,z,800,2000,92,33,1,z,1,0.5073217999997723,None,1,33,92,4,393.32894990000204,,,,,,,,,393.3219269000001,393.32894990000204,393.32894990000204,0.02713930000027176,393.51078140000027,393.51078140000027,393.8464268000025,z,1,0.5073217999997723,None,2.470470117204577,393.84712560000116,393.86099789999935,396.3494752000006,396.3122022999996,,,,Casey,001,2025-03-08_17h57.48.792,pleaseworkstroopcontrol,2024.2.4,60.07857075424197,2025-03-08 17h58.03.975243 -0800,
test,inconsistent,31,yellow,red,word,z,800,2000,93,34,1,z,1,0.7036340000013297,None,1,34,93,30,396.3494752000006,,,,,,,,,396.3425214000017,396.3494752000006,396.3494752000006,0.030322899998282082,396.52790839999943,396.52790839999943,397.06306750000294,z,1,0.7036340000013297,None,1.935578178234286,397.0639138000006,397.07737819999966,399.02801940000063,398.99545170000056,,,,Casey,001,2025-03-08_17h57.48.792,pleaseworkstroopcontrol,2024.2.4,60.07857075424197,2025-03-08 17h58.03.975243 -0800,
test,consistent,51,red,red,word,m,800,2000,94,35,1,m,1,0.5627428000007058,None,1,35,94,50,399.02801940000063,,,,,,,,,399.02138750000086,399.02801940000063,399.02801940000063,0.0261571000010008,399.211436900001,399.211436900001,399.59638350000023,m,1,0.5627428000007058,None,1.51481808499244,399.5972206000006,399.6110821000002,401.1236244000029,401.0963255000024,,,,Casey,001,2025-03-08_17h57.48.792,pleaseworkstroopcontrol,2024.2.4,60.07857075424197,2025-03-08 17h58.03.975243 -0800,
test,consistent,43,green,green,word,m,800,2000,95,36,1,m,1,0.6335518999985652,None,1,36,95,42,401.1236244000029,,,,,,,,,401.1168233999997,401.1236244000029,401.1236244000029,0.020561400000588037,401.311476400002,401.311476400002,401.7646663000014,m,1,0.6335518999985652,None,3.2866457300580842,401.76543180000226,401.7785124000002,405.1225451999999,405.04594820000057,,,,Casey,001,2025-03-08_17h57.48.792,pleaseworkstroopcontrol,2024.2.4,60.07857075424197,2025-03-08 17h58.03.975243 -0800,
test,inconsistent,56,green,red,word,z,800,2000,96,37,1,z,1,0.6771258000007947,None,1,37,96,55,405.1225451999999,,,,,,,,,405.1165230000006,405.1225451999999,405.1225451999999,0.07019280000167782,405.2619618000026,405.2619618000026,405.8143931000013,z,1,0.6771258000007947,None,1.5352629606381087,405.8151260000013,405.8283665000017,407.37836360000074,407.34657549999974,,,,Casey,001,2025-03-08_17h57.48.792,pleaseworkstroopcontrol,2024.2.4,60.07857075424197,2025-03-08 17h58.03.975243 -0800,
test,inconsistent,15,yellow,red,word,z,800,2000,97,38,1,z,1,0.8713325999997323,None,1,38,97,14,407.37836360000074,,,,,,,,,407.3711121000015,407.37836360000074,407.37836360000074,0.024295700000948273,407.5623164999997,407.5623164999997,408.2645650000013,z,1,0.8713325999997323,None,5.971512686067385,408.26521160000266,408.2787074000007,414.25498960000186,414.2304038000002,,,,Casey,001,2025-03-08_17h57.48.792,pleaseworkstroopcontrol,2024.2.4,60.07857075424197,2025-03-08 17h58.03.975243 -0800,
test,consistent,45,red,red,word,m,800,2000,98,39,1,m,1,0.6165552999991633,None,1,39,98,44,414.25498960000186,,,,,,,,,414.24831260000065,414.25498960000186,414.25498960000186,0.01788999999916996,414.4460238000029,414.4460238000029,414.8812402000003,m,1,0.6165552999991633,None,3.556596651093956,414.88225520000196,414.8960952000016,418.46763959999953,418.4308314000009,,,,Casey,001,2025-03-08_17h57.48.792,pleaseworkstroopcontrol,2024.2.4,60.07857075424197,2025-03-08 17h58.03.975243 -0800,
test,inconsistent,48,yellow,red,word,z,800,2000,99,40,1,z,1,0.5056365000018559,None,1,40,99,47,418.46763959999953,,,,,,,,,418.4600022000013,418.46763959999953,418.46763959999953,0.029226400001789443,418.6467561999998,418.6467561999998,418.98206800000116,z,1,0.5056365000018559,None,3.016647454873668,418.982842100002,418.9968095000004,422.02239570000165,421.9980410999997,,,,Casey,001,2025-03-08_17h57.48.792,pleaseworkstroopcontrol,2024.2.4,60.07857075424197,2025-03-08 17h58.03.975243 -0800,
test,inconsistent,33,yellow,green,word,z,800,2000,100,41,1,z,1,0.7747415000012552,None,1,41,100,32,422.02239570000165,,,,,,,,,422.0176549000025,422.02239570000165,422.02239570000165,0.019484600001305807,422.21372060000067,422.21372060000067,422.79956120000134,z,1,0.7747415000012552,None,1.1973462608840226,422.80024179999964,422.8138199000023,424.00343860000066,423.9812101999996,,,,Casey,001,2025-03-08_17h57.48.792,pleaseworkstroopcontrol,2024.2.4,60.07857075424197,2025-03-08 17h58.03.975243 -0800,
test,consistent,57,yellow,yellow,word,m,800,2000,101,42,1,m,1,0.5284618000005139,None,1,42,101,56,424.00343860000066,,,,,,,,,423.9978011000021,424.00343860000066,424.00343860000066,0.016598800000792835,424.1970409000023,424.1970409000023,424.5492219000007,m,1,0.5284618000005139,None,1.5750345113379929,424.55008459999954,424.56386920000296,426.14287930000137,426.11492670000007,,,,Casey,001,2025-03-08_17h57.48.792,pleaseworkstroopcontrol,2024.2.4,60.07857075424197,2025-03-08 17h58.03.975243 -0800,
test,consistent,47,blue,blue,word,m,800,2000,102,43,1,m,1,0.6957307000011497,None,1,43,102,46,426.14287930000137,,,,,,,,,426.13677980000284,426.14287930000137,426.14287930000137,0.02201020000211429,426.33037289999993,426.33037289999993,426.84947790000297,m,1,0.6957307000011497,None,4.630668642213392,426.8501877000017,426.8639196000004,431.4924342000013,431.4654042000002,,,,Casey,001,2025-03-08_17h57.48.792,pleaseworkstroopcontrol,2024.2.4,60.07857075424197,2025-03-08 17h58.03.975243 -0800,
test,inconsistent,19,green,red,word,z,800,2000,103,44,1,z,1,0.5679348000012396,None,1,44,103,18,431.4924342000013,,,,,,,,,431.4855333000014,431.4924342000013,431.4924342000013,0.02015920000121696,431.68100369999956,431.68100369999956,432.06697200000053,z,1,0.5679348000012396,None,1.39379584198441,432.06776230000105,432.08086970000295,433.48223380000127,433.44929700000284,,,,Casey,001,2025-03-08_17h57.48.792,pleaseworkstroopcontrol,2024.2.4,60.07857075424197,2025-03-08 17h58.03.975243 -0800,
test,consistent,1,red,red,word,m,800,2000,104,45,1,m,1,0.5506792999985919,None,1,45,104,0,433.48223380000127,,,,,,,,,433.4767345,433.48223380000127,433.48223380000127,0.027307899999868823,433.6648746999999,433.6648746999999,434.050146900001,m,1,0.5506792999985919,None,4.756969966207112,434.0507838000012,434.06516360000023,438.8462435000001,438.79968630000076,,,,Casey,001,2025-03-08_17h57.48.792,pleaseworkstroopcontrol,2024.2.4,60.07857075424197,2025-03-08 17h58.03.975243 -0800,
test,inconsistent,17,yellow,green,word,z,800,2000,105,46,1,z,1,0.5754344000015408,None,1,46,105,16,438.8462435000001,,,,,,,,,438.8377887000024,438.8462435000001,438.8462435000001,0.03812390000166488,439.0150577000022,439.0150577000022,439.43414100000155,z,1,0.5754344000015408,None,5.348009745610003,439.4348737,439.44862529999955,444.7945006000009,444.7667642000015,,,,Casey,001,2025-03-08_17h57.48.792,pleaseworkstroopcontrol,2024.2.4,60.07857075424197,2025-03-08 17h58.03.975243 -0800,
test,inconsistent,14,yellow,blue,word,z,800,2000,106,47,1,z,1,0.5012318000008236,None,1,47,106,13,444.7945006000009,,,,,,,,,444.78831210000135,444.7945006000009,444.7945006000009,0.021774100001493935,444.98240050000095,444.98240050000095,445.3012125000023,z,1,0.5012318000008236,None,4.628373627195448,445.3020170000018,445.3158463,449.9468734000002,449.9165802000025,,,,Casey,001,2025-03-08_17h57.48.792,pleaseworkstroopcontrol,2024.2.4,60.07857075424197,2025-03-08 17h58.03.975243 -0800,
test,inconsistent,44,green,red,word,z,800,2000,107,48,1,z,1,0.5259198999992805,None,1,48,107,43,449.9468734000002,,,,,,,,,449.9418860000005,449.9468734000002,449.9468734000002,0.02530019999903743,450.11630929999956,450.11630929999956,450.484930300001,z,1,0.5259198999992805,None,2.4622997229048007,450.48566050000227,450.49966029999996,452.95438520000243,452.9343351000025,,,,Casey,001,2025-03-08_17h57.48.792,pleaseworkstroopcontrol,2024.2.4,60.07857075424197,2025-03-08 17h58.03.975243 -0800,
test,consistent,34,green,green,word,m,800,2000,108,49,1,m,1,0.7374952999998641,None,1,49,108,33,452.95438520000243,,,,,,,,,452.94854850000047,452.95438520000243,452.95438520000243,0.014236700000765268,453.1499474000011,453.1499474000011,453.70318640000187,m,1,0.7374952999998641,None,4.5436126737014275,453.7040740000011,453.7167405,458.2895582000019,458.2348153000021,,,,Casey,001,2025-03-08_17h57.48.792,pleaseworkstroopcontrol,2024.2.4,60.07857075424197,2025-03-08 17h58.03.975243 -0800,
test,inconsistent,50,yellow,green,word,z,800,2000,109,50,1,z,1,0.46588689999771304,None,1,50,109,49,458.2895582000019,,,,,,,,,458.2841870000011,458.2895582000019,458.2895582000019,0.049061499998060754,458.45030260000203,458.45030260000203,458.7692096000028,z,1,0.46588689999771304,None,5.526722399089865,458.76985090000016,458.78380540000217,464.3098189000011,464.28450800000064,,,,Casey,001,2025-03-08_17h57.48.792,pleaseworkstroopcontrol,2024.2.4,60.07857075424197,2025-03-08 17h58.03.975243 -0800,
test,consistent,49,yellow,yellow,word,m,800,2000,110,51,1,m,1,0.5056116000014299,None,1,51,110,48,464.3098189000011,,,,,,,,,464.3058947000027,464.3098189000011,464.3098189000011,0.02136679999966873,464.4842387000026,464.4842387000026,464.8187886000014,m,1,0.5056116000014299,None,4.93632316535548,464.8192486000007,464.83427049999955,469.7798103999994,469.75268309999956,,,,Casey,001,2025-03-08_17h57.48.792,pleaseworkstroopcontrol,2024.2.4,60.07857075424197,2025-03-08 17h58.03.975243 -0800,
test,inconsistent,37,red,green,word,z,800,2000,111,52,1,z,1,0.5153903999998874,None,1,52,111,36,469.7798103999994,,,,,,,,,469.7731846000024,469.7798103999994,469.7798103999994,0.020580899999913527,469.96821640000053,469.96821640000053,470.3040120000005,z,1,0.5153903999998874,None,3.3734232054404507,470.3046515999995,470.3184581000023,473.6926741999996,473.6696351000028,,,,Casey,001,2025-03-08_17h57.48.792,pleaseworkstroopcontrol,2024.2.4,60.07857075424197,2025-03-08 17h58.03.975243 -0800,
test,inconsistent,9,red,blue,word,z,800,2000,112,53,1,z,1,0.6288576000006287,None,1,53,112,8,473.6926741999996,,,,,,,,,473.6866889000012,473.6926741999996,473.6926741999996,0.017276899998250883,473.88528340000266,473.88528340000266,474.33754190000036,z,1,0.6288576000006287,None,5.5373260325088145,474.33832410000105,474.3518530000001,479.9069430000018,479.8704937000002,,,,Casey,001,2025-03-08_17h57.48.792,pleaseworkstroopcontrol,2024.2.4,60.07857075424197,2025-03-08 17h58.03.975243 -0800,
test,inconsistent,24,blue,green,word,z,800,2000,113,54,1,z,1,0.46908670000266284,None,1,54,113,23,479.9069430000018,,,,,,,,,479.8996436000016,479.9069430000018,479.9069430000018,0.02917399999932968,480.0858595000027,480.0858595000027,480.38821400000234,z,1,0.46908670000266284,None,5.773476759514873,480.38896990000285,480.40248070000234,486.1851024000025,486.1542104,,,,Casey,001,2025-03-08_17h57.48.792,pleaseworkstroopcontrol,2024.2.4,60.07857075424197,2025-03-08 17h58.03.975243 -0800,
test,inconsistent,22,red,yellow,word,z,800,2000,114,55,1,z,1,0.4726752000024135,None,1,55,114,21,486.1851024000025,,,,,,,,,486.1785482000014,486.1851024000025,486.1851024000025,0.024357400001463247,486.3700043000026,486.3700043000026,486.6721355000009,z,1,0.4726752000024135,None,1.0278360071954515,486.6730029999999,486.68660760000057,487.71955490000255,487.68759540000246,,,,Casey,001,2025-03-08_17h57.48.792,pleaseworkstroopcontrol,2024.2.4,60.07857075424197,2025-03-08 17h58.03.975243 -0800,
test,inconsistent,59,yellow,green,word,z,800,2000,115,56,1,z,1,0.5246546000016679,None,1,56,115,58,487.71955490000255,,,,,,,,,487.7118788000007,487.71955490000255,487.71955490000255,0.02462290000039502,487.90317640000285,487.90317640000285,488.2561443000013,z,1,0.5246546000016679,None,5.641125012744919,488.2572770000006,488.2700775000012,493.9282314000011,493.8884059000011,,,,Casey,001,2025-03-08_17h57.48.792,pleaseworkstroopcontrol,2024.2.4,60.07857075424197,2025-03-08 17h58.03.975243 -0800,
test,inconsistent,58,yellow,red,word,z,800,2000,116,57,1,z,1,0.4487705999999889,None,1,57,116,57,493.9282314000011,,,,,,,,,493.9219477000006,493.9282314000011,493.9282314000011,0.03364499999952386,494.10369020000144,494.10369020000144,494.3897642000011,z,1,0.4487705999999889,None,3.2205726308330065,494.3907975000002,494.4038799000009,497.63717840000027,497.6052492000017,,,,Casey,001,2025-03-08_17h57.48.792,pleaseworkstroopcontrol,2024.2.4,60.07857075424197,2025-03-08 17h58.03.975243 -0800,
test,inconsistent,26,green,yellow,word,z,800,2000,117,58,1,z,1,0.5279627000018081,None,1,58,117,25,497.63717840000027,,,,,,,,,497.6291826000015,497.63717840000027,497.63717840000027,0.024220299997978145,497.8210660000004,497.8210660000004,498.1733858000007,z,1,0.5279627000018081,None,3.343763450600069,498.17428110000037,498.1877605000009,501.53489869999976,501.50594430000274,,,,Casey,001,2025-03-08_17h57.48.792,pleaseworkstroopcontrol,2024.2.4,60.07857075424197,2025-03-08 17h58.03.975243 -0800,
test,consistent,35,red,red,word,m,800,2000,118,0,2,z,0,0.4507716000007349,None,2,0,118,34,501.53489869999976,,,,,,,,,501.5284644000021,501.53489869999976,501.53489869999976,0.02255670000158716,501.7214208000005,501.7214208000005,501.9901831999996,z,0,0.4507716000007349,None,3.000999984046725,501.9909953000024,502.0047909999994,505.0173821999997,504.9893427999996,,,,Casey,001,2025-03-08_17h57.48.792,pleaseworkstroopcontrol,2024.2.4,60.07857075424197,2025-03-08 17h58.03.975243 -0800,
test,inconsistent,30,blue,red,word,z,800,2000,119,1,2,z,1,0.47677350000230945,None,2,1,119,29,505.0173821999997,,,,,,,,,505.0107089000012,505.0173821999997,505.0173821999997,0.02128870000160532,505.2047808999996,505.2047808999996,505.50712589999966,z,1,0.47677350000230945,None,5.909078647287925,505.50791240000035,505.5219870000001,511.4481102000027,511.40658260000055,,,,Casey,001,2025-03-08_17h57.48.792,pleaseworkstroopcontrol,2024.2.4,60.07857075424197,2025-03-08 17h58.03.975243 -0800,
test,inconsistent,31,yellow,red,word,z,800,2000,120,2,2,z,1,0.5484904000004462,None,2,2,120,30,511.4481102000027,,,,,,,,,511.4396906000002,511.4481102000027,511.4481102000027,0.033390500000678,511.6226029000027,511.6226029000027,512.0073349000013,z,1,0.5484904000004462,None,3.688700780528472,512.0080933000027,512.0224474000024,515.7201676000004,515.6905015000011,,,,Casey,001,2025-03-08_17h57.48.792,pleaseworkstroopcontrol,2024.2.4,60.07857075424197,2025-03-08 17h58.03.975243 -0800,
test,consistent,45,red,red,word,m,800,2000,121,3,2,m,1,0.5298517000010179,None,2,3,121,44,515.7201676000004,,,,,,,,,515.7138570000025,515.7201676000004,515.7201676000004,0.023450799999409355,515.9061526000005,515.9061526000005,516.2582124,m,1,0.5298517000010179,None,5.432447774735595,516.2588926999997,516.2728559000025,521.7154477000004,521.6909651999995,,,,Casey,001,2025-03-08_17h57.48.792,pleaseworkstroopcontrol,2024.2.4,60.07857075424197,2025-03-08 17h58.03.975243 -0800,
test,inconsistent,39,red,yellow,word,z,800,2000,122,4,2,z,1,0.5840692000019772,None,2,4,122,38,521.7154477000004,,,,,,,,,521.7091293000012,521.7154477000004,521.7154477000004,0.018127800001821015,521.906342600003,521.906342600003,522.3088803000028,z,1,0.5840692000019772,None,1.8554643547287073,522.3095570000005,522.323389000001,524.2269336999998,524.1573346000005,,,,Casey,001,2025-03-08_17h57.48.792,pleaseworkstroopcontrol,2024.2.4,60.07857075424197,2025-03-08 17h58.03.975243 -0800,
test,consistent,41,green,green,word,m,800,2000,123,5,2,m,1,0.6754420999968715,None,2,5,123,40,524.2269336999998,,,,,,,,,524.2196051000028,524.2269336999998,524.2269336999998,0.06225350000022445,524.3741346000024,524.3741346000024,524.9090032000022,m,1,0.6754420999968715,None,2.2211756866868093,524.9098465000025,524.9235458000003,527.1890851999997,527.1247466999994,,,,Casey,001,2025-03-08_17h57.48.792,pleaseworkstroopcontrol,2024.2.4,60.07857075424197,2025-03-08 17h58.03.975243 -0800,
test,consistent,38,blue,blue,word,m,800,2000,124,6,2,m,1,0.7103143000022101,None,2,6,124,37,527.1890851999997,,,,,,,,,527.1826707,527.1890851999997,527.1890851999997,0.05806540000048699,527.3406312000006,527.3406312000006,527.9096692000021,m,1,0.7103143000022101,None,2.9983469704417893,527.9103060000016,527.9239541999996,530.9249579999996,530.8930044000008,,,,Casey,001,2025-03-08_17h57.48.792,pleaseworkstroopcontrol,2024.2.4,60.07857075424197,2025-03-08 17h58.03.975243 -0800,
test,inconsistent,27,green,red,word,z,800,2000,125,7,2,z,1,0.45827379999900586,None,2,7,125,26,530.9249579999996,,,,,,,,,530.9177043000018,530.9249579999996,530.9249579999996,0.024517300000297837,531.1077261999999,531.1077261999999,531.3927419000029,z,1,0.45827379999900586,None,5.86939909086273,531.3932912000018,531.4075204000001,537.3035210000016,537.2590630000013,,,,Casey,001,2025-03-08_17h57.48.792,pleaseworkstroopcontrol,2024.2.4,60.07857075424197,2025-03-08 17h58.03.975243 -0800,
test,consistent,40,yellow,yellow,word,m,800,2000,126,8,2,m,1,0.7013611000002129,None,2,8,126,39,537.3035210000016,,,,,,,,,537.2961001000003,537.3035210000016,537.3035210000016,0.03741450000234181,537.4581908,537.4581908,538.0115532000018,m,1,0.7013611000002129,None,2.840952307194252,538.0123792000013,538.0246187000012,540.8825295000024,540.8430647999994,,,,Casey,001,2025-03-08_17h57.48.792,pleaseworkstroopcontrol,2024.2.4,60.07857075424197,2025-03-08 17h58.03.975243 -0800,
test,consistent,36,red,red,word,m,800,2000,127,9,2,z,0,0.5178334000011091,None,2,9,127,35,540.8825295000024,,,,,,,,,540.8757678000002,540.8825295000024,540.8825295000024,0.03243980000115698,541.0586801000027,541.0586801000027,541.4110017000021,z,0,0.5178334000011091,None,4.733264894183668,541.4120470000016,541.4250625000022,546.1693644000006,546.1433646000005,,,,Casey,001,2025-03-08_17h57.48.792,pleaseworkstroopcontrol,2024.2.4,60.07857075424197,2025-03-08 17h58.03.975243 -0800,
test,consistent,43,green,green,word,m,800,2000,128,10,2,m,1,0.47720059999846853,None,2,10,128,42,546.1693644000006,,,,,,,,,546.1625760000024,546.1693644000006,546.1693644000006,0.01926159999857191,546.3590949999998,546.3590949999998,546.6612255,m,1,0.47720059999846853,None,3.5706649468459046,546.6619821000022,546.6757467999996,550.2536166000027,550.2273559999994,,,,Casey,001,2025-03-08_17h57.48.792,pleaseworkstroopcontrol,2024.2.4,60.07857075424197,2025-03-08 17h58.03.975243 -0800,
test,consistent,57,yellow,yellow,word,m,800,2000,129,11,2,m,1,0.5023696999996901,None,2,11,129,56,550.2536166000027,,,,,,,,,550.2469340999996,550.2536166000027,550.2536166000027,0.019613799999206094,550.4428989000007,550.4428989000007,550.7618321000009,m,1,0.5023696999996901,None,1.653597746528745,550.7625791000028,550.7759432000021,552.4396723999998,552.4108548000004,,,,Casey,001,2025-03-08_17h57.48.792,pleaseworkstroopcontrol,2024.2.4,60.07857075424197,2025-03-08 17h58.03.975243 -0800,
test,inconsistent,8,black,yellow,word,z,800,2000,130,12,2,z,1,0.6219047999984468,None,2,12,130,7,552.4396723999998,,,,,,,,,552.4326943000015,552.4396723999998,552.4396723999998,0.022289900000032503,552.6262400000014,552.6262400000014,553.0783198000026,z,1,0.6219047999984468,None,4.182041763266094,553.0790188000028,553.0931883000012,557.2728585000004,557.2447694000002,,,,Casey,001,2025-03-08_17h57.48.792,pleaseworkstroopcontrol,2024.2.4,60.07857075424197,2025-03-08 17h58.03.975243 -0800,
test,consistent,54,green,green,word,m,800,2000,131,13,2,m,1,0.5337675999981002,None,2,13,131,53,557.2728585000004,,,,,,,,,557.2656043999996,557.2728585000004,557.2728585000004,0.021132100002432708,557.4603076000021,557.4603076000021,557.8127985000028,m,1,0.5337675999981002,None,5.730157656132389,557.8135789000007,557.8266810000023,563.583225800001,563.5277667000009,,,,Casey,001,2025-03-08_17h57.48.792,pleaseworkstroopcontrol,2024.2.4,60.07857075424197,2025-03-08 17h58.03.975243 -0800,
test,inconsistent,25,red,blue,word,z,800,2000,132,14,2,z,1,0.6119857999983651,None,2,14,132,24,563.583225800001,,,,,,,,,563.5773233,563.583225800001,563.583225800001,0.049736200002371334,563.7275665000016,563.7275665000016,564.2128787000001,z,1,0.6119857999983651,None,1.8730720279691266,564.2135560000024,564.2274806999994,566.1109405999996,566.0788662000014,,,,Casey,001,2025-03-08_17h57.48.792,pleaseworkstroopcontrol,2024.2.4,60.07857075424197,2025-03-08 17h58.03.975243 -0800,
test,inconsistent,2,yellow,green,word,z,800,2000,133,15,2,z,1,0.6691694000001007,None,2,15,133,1,566.1109405999996,,,,,,,,,566.1027533000015,566.1109405999996,566.1109405999996,0.02401079999981448,566.2940869000013,566.2940869000013,566.7962982000026,z,1,0.6691694000001007,None,4.77113572144978,566.7970445000028,566.8111686000011,571.5914585999999,571.5627005000024,,,,Casey,001,2025-03-08_17h57.48.792,pleaseworkstroopcontrol,2024.2.4,60.07857075424197,2025-03-08 17h58.03.975243 -0800,
test,inconsistent,11,green,red,word,z,800,2000,134,16,2,z,1,0.4730773999981466,None,2,16,134,10,571.5914585999999,,,,,,,,,571.5852583000014,571.5914585999999,571.5914585999999,0.022576600000320468,571.7782864000001,571.7782864000001,572.0804112000005,z,1,0.4730773999981466,None,2.9156864418144033,572.0810402000025,572.094617900002,575.0272274000017,574.9964032999997,,,,Casey,001,2025-03-08_17h57.48.792,pleaseworkstroopcontrol,2024.2.4,60.07857075424197,2025-03-08 17h58.03.975243 -0800,
test,consistent,28,yellow,yellow,word,m,800,2000,135,17,2,m,1,0.5706147999990208,None,2,17,135,27,575.0272274000017,,,,,,,,,575.0209192000002,575.0272274000017,575.0272274000017,0.024357300000701798,575.2120792000023,575.2120792000023,575.6141247000014,m,1,0.5706147999990208,None,2.269152631198358,575.6150017,575.6286405000028,577.911033700002,577.8798999000028,,,,Casey,001,2025-03-08_17h57.48.792,pleaseworkstroopcontrol,2024.2.4,60.07857075424197,2025-03-08 17h58.03.975243 -0800,
test,inconsistent,20,red,green,word,z,800,2000,136,18,2,z,1,0.5455287000004319,None,2,18,136,19,577.911033700002,,,,,,,,,577.9044016000007,577.911033700002,577.911033700002,0.02461549999861745,578.0953098999998,578.0953098999998,578.4645376000008,z,1,0.5455287000004319,None,1.7190990008946707,578.4652582000017,578.4791213000026,580.209365900002,580.1803008000024,,,,Casey,001,2025-03-08_17h57.48.792,pleaseworkstroopcontrol,2024.2.4,60.07857075424197,2025-03-08 17h58.03.975243 -0800,
test,inconsistent,26,green,yellow,word,z,800,2000,137,19,2,z,1,0.9526863999999478,None,2,19,137,25,580.209365900002,,,,,,,,,580.2025964000022,580.209365900002,580.209365900002,0.02237980000063544,580.3956304000021,580.3956304000021,581.1648550000027,z,1,0.9526863999999478,None,5.010062097308632,581.1658271000015,581.1792528000005,586.1885307000011,586.1642391999994,,,,Casey,001,2025-03-08_17h57.48.792,pleaseworkstroopcontrol,2024.2.4,60.07857075424197,2025-03-08 17h58.03.975243 -0800,
test,inconsistent,10,green,yellow,word,z,800,2000,138,20,2,z,1,0.561692100000073,None,2,20,138,9,586.1885307000011,,,,,,,,,586.1822250000005,586.1885307000011,586.1885307000011,0.018135300000722054,586.3797214000006,586.3797214000006,586.7653113000015,z,1,0.561692100000073,None,4.8001570870028125,586.7659870000025,586.7797960000025,591.5941457000008,591.5647202,,,,Casey,001,2025-03-08_17h57.48.792,pleaseworkstroopcontrol,2024.2.4,60.07857075424197,2025-03-08 17h58.03.975243 -0800,
test,inconsistent,16,red,green,word,z,800,2000,139,21,2,z,1,0.6568369000015082,None,2,21,139,15,591.5941457000008,,,,,,,,,591.5871697000002,591.5941457000008,591.5941457000008,0.02280139999857056,591.7804108000018,591.7804108000018,592.2659741000025,z,1,0.6568369000015082,None,5.155472572036029,592.2668129000012,592.2804087000004,597.4417109999995,597.4156339000001,,,,Casey,001,2025-03-08_17h57.48.792,pleaseworkstroopcontrol,2024.2.4,60.07857075424197,2025-03-08 17h58.03.975243 -0800,
test,inconsistent,53,red,yellow,word,z,800,2000,140,22,2,z,1,0.5013214999999036,None,2,22,140,52,597.4417109999995,,,,,,,,,597.4361108000012,597.4417109999995,597.4417109999995,0.020462899999984074,597.631073200002,597.631073200002,597.9494363000013,z,1,0.5013214999999036,None,3.541456967237559,597.9500960000005,597.964514000003,601.5167198000017,601.4824845000003,,,,Casey,001,2025-03-08_17h57.48.792,pleaseworkstroopcontrol,2024.2.4,60.07857075424197,2025-03-08 17h58.03.975243 -0800,
test,inconsistent,58,yellow,red,word,z,800,2000,141,23,2,z,1,0.5006849000019429,None,2,23,141,57,601.5167198000017,,,,,,,,,601.5085694000009,601.5167198000017,601.5167198000017,0.02625400000033551,601.6976582000025,601.6976582000025,602.0335771999999,z,1,0.5006849000019429,None,3.3603959793497427,602.0343068000002,602.047798800002,605.4103133999997,605.3826499999996,,,,Casey,001,2025-03-08_17h57.48.792,pleaseworkstroopcontrol,2024.2.4,60.07857075424197,2025-03-08 17h58.03.975243 -0800,
test,consistent,47,blue,blue,word,m,800,2000,142,24,2,m,1,0.45961929999975837,None,2,24,142,46,605.4103133999997,,,,,,,,,605.4035600000025,605.4103133999997,605.4103133999997,0.02103739999802201,605.5981657000011,605.5981657000011,605.8840885000027,m,1,0.45961929999975837,None,3.9105556696110124,605.8847834000007,605.8980445000016,609.8113446000025,609.783331300001,,,,Casey,001,2025-03-08_17h57.48.792,pleaseworkstroopcontrol,2024.2.4,60.07857075424197,2025-03-08 17h58.03.975243 -0800,
test,inconsistent,59,yellow,green,word,z,800,2000,143,25,2,z,1,0.5087235000028159,None,2,25,143,58,609.8113446000025,,,,,,,,,609.8047250000018,609.8113446000025,609.8113446000025,0.021342700001696358,609.9986585000006,609.9986585000006,610.3343870000026,z,1,0.5087235000028159,None,2.050264870265444,610.3352546999995,610.3484825000014,612.4098288999994,612.3834704000001,,,,Casey,001,2025-03-08_17h57.48.792,pleaseworkstroopcontrol,2024.2.4,60.07857075424197,2025-03-08 17h58.03.975243 -0800,
test,inconsistent,9,red,blue,word,z,800,2000,144,26,2,z,1,0.6488959999987856,None,2,26,144,8,612.4098288999994,,,,,,,,,612.402984700002,612.4098288999994,612.4098288999994,0.01983470000050147,612.5987815000008,612.5987815000008,613.0679312000029,z,1,0.6488959999987856,None,5.927358606358246,613.0686282999995,613.0825562999999,619.0064955000016,618.9840793000003,,,,Casey,001,2025-03-08_17h57.48.792,pleaseworkstroopcontrol,2024.2.4,60.07857075424197,2025-03-08 17h58.03.975243 -0800,
test,inconsistent,52,red,green,word,z,800,2000,145,27,2,z,1,0.619925000002695,None,2,27,145,51,619.0064955000016,,,,,,,,,619.0001192000018,619.0064955000016,619.0064955000016,0.01614309999786201,619.1993737000012,619.1993737000012,619.6352898000005,z,1,0.619925000002695,None,5.657483917768811,619.6359938999994,619.6493384999994,625.3136745000011,625.2850123999997,,,,Casey,001,2025-03-08_17h57.48.792,pleaseworkstroopcontrol,2024.2.4,60.07857075424197,2025-03-08 17h58.03.975243 -0800,
test,inconsistent,29,green,blue,word,z,800,2000,146,28,2,z,1,0.5037298999995983,None,2,28,146,28,625.3136745000011,,,,,,,,,625.3061887000003,625.3136745000011,625.3136745000011,0.02136919999975362,625.5000049000009,625.5000049000009,625.819730700001,z,1,0.5037298999995983,None,2.6112573445223943,625.8204461999994,625.8336153000018,628.4451259000016,628.4186198999996,,,,Casey,001,2025-03-08_17h57.48.792,pleaseworkstroopcontrol,2024.2.4,60.07857075424197,2025-03-08 17h58.03.975243 -0800,
test,inconsistent,24,blue,green,word,z,800,2000,147,29,2,z,1,0.4993015000000014,None,2,29,147,23,628.4451259000016,,,,,,,,,628.4389243000005,628.4451259000016,628.4451259000016,0.020332899999630172,628.6339197000016,628.6339197000016,628.9523948999995,z,1,0.4993015000000014,None,5.16944868639404,628.9530651000023,628.9671980000021,634.1619888999994,634.1189760000016,,,,Casey,001,2025-03-08_17h57.48.792,pleaseworkstroopcontrol,2024.2.4,60.07857075424197,2025-03-08 17h58.03.975243 -0800,
test,inconsistent,4,red,green,word,z,800,2000,148,30,2,z,1,0.5646911000003456,None,2,30,148,3,634.1619888999994,,,,,,,,,634.1552986000024,634.1619888999994,634.1619888999994,0.03638180000052671,634.3345518999995,634.3345518999995,634.736714900002,z,1,0.5646911000003456,None,1.77322954173618,634.7373523999995,634.7508933999998,636.5279848000027,636.5022032000015,,,,Casey,001,2025-03-08_17h57.48.792,pleaseworkstroopcontrol,2024.2.4,60.07857075424197,2025-03-08 17h58.03.975243 -0800,
test,consistent,23,green,green,word,m,800,2000,149,31,2,m,1,0.5661767000019609,None,2,31,149,22,636.5279848000027,,,,,,,,,636.5216801999995,636.5279848000027,636.5279848000027,0.019461600000795443,636.7180960000005,636.7180960000005,637.1037783000029,m,1,0.5661767000019609,None,4.5283029398853145,637.1045757000029,637.1182085,641.6425608999998,641.6188039000008,,,,Casey,001,2025-03-08_17h57.48.792,pleaseworkstroopcontrol,2024.2.4,60.07857075424197,2025-03-08 17h58.03.975243 -0800,
test,inconsistent,50,yellow,green,word,z,800,2000,150,32,2,z,1,0.49671479999960866,None,2,32,150,49,641.6425608999998,,,,,,,,,641.6378044000012,641.6425608999998,641.6425608999998,0.019101099998806603,641.8185193999998,641.8185193999998,642.1539837000018,z,1,0.49671479999960866,None,3.864724649774026,642.1549008000002,642.1685612000001,646.0344043000005,646.0033022999996,,,,Casey,001,2025-03-08_17h57.48.792,pleaseworkstroopcontrol,2024.2.4,60.07857075424197,2025-03-08 17h58.03.975243 -0800,
test,inconsistent,32,orange,green,word,z,800,2000,151,33,2,z,1,0.4598390000028303,None,2,33,151,31,646.0344043000005,,,,,,,,,646.027141300001,646.0344043000005,646.0344043000005,0.02390709999963292,646.2189617000004,646.2189617000004,646.504257200002,z,1,0.4598390000028303,None,3.667210951771561,646.5048910000005,646.5191358000011,650.2004301000015,650.1703474000024,,,,Casey,001,2025-03-08_17h57.48.792,pleaseworkstroopcontrol,2024.2.4,60.07857075424197,2025-03-08 17h58.03.975243 -0800,
test,consistent,46,yellow,yellow,word,m,800,2000,152,34,2,z,0,0.4573089000004984,None,2,34,152,45,650.2004301000015,,,,,,,,,650.1929214000011,650.2004301000015,650.2004301000015,0.02264169999762089,650.3859460000021,650.3859460000021,650.6717562000013,z,0,0.4573089000004984,None,1.6331295379524327,650.6724362999994,650.6859205000001,652.3447257000007,652.304025700003,,,,Casey,001,2025-03-08_17h57.48.792,pleaseworkstroopcontrol,2024.2.4,60.07857075424197,2025-03-08 17h58.03.975243 -0800,
test,inconsistent,21,black,yellow,word,z,800,2000,153,35,2,z,1,0.5191468999983044,None,2,35,153,20,652.3447257000007,,,,,,,,,652.337746600002,652.3447257000007,652.3447257000007,0.03383220000250731,652.519548100001,652.519548100001,652.8719474000027,z,1,0.5191468999983044,None,5.737647019406809,652.8727393000008,652.8862487000006,658.6543901000005,658.6043753000013,,,,Casey,001,2025-03-08_17h57.48.792,pleaseworkstroopcontrol,2024.2.4,60.07857075424197,2025-03-08 17h58.03.975243 -0800,
test,inconsistent,5,orange,blue,word,z,800,2000,154,36,2,z,1,0.5394644000007247,None,2,36,154,4,658.6543901000005,,,,,,,,,658.6468109000016,658.6543901000005,658.6543901000005,0.04240910000225995,658.8201287000011,658.8201287000011,659.2058090999999,z,1,0.5394644000007247,None,4.329252007068274,659.2065034000007,659.2200900999997,663.5677227000015,663.5213978000029,,,,Casey,001,2025-03-08_17h57.48.792,pleaseworkstroopcontrol,2024.2.4,60.07857075424197,2025-03-08 17h58.03.975243 -0800,
test,inconsistent,19,green,red,word,z,800,2000,155,37,2,z,1,0.5588416999999026,None,2,37,155,18,663.5677227000015,,,,,,,,,663.5607025000027,663.5677227000015,663.5677227000015,0.03935949999868171,663.7376218000027,663.7376218000027,664.1395418000029,z,1,0.5588416999999026,None,5.368728145503597,664.1401837000012,664.1541023000027,669.5340152000026,669.5055327000009,,,,Casey,001,2025-03-08_17h57.48.792,pleaseworkstroopcontrol,2024.2.4,60.07857075424197,2025-03-08 17h58.03.975243 -0800,
test,inconsistent,13,purple,red,word,z,800,2000,156,38,2,z,1,0.556195299999672,None,2,38,156,12,669.5340152000026,,,,,,,,,669.5268533000017,669.5340152000026,669.5340152000026,0.02131599999847822,669.7212937000004,669.7212937000004,670.1064422000018,z,1,0.556195299999672,None,4.873244067141591,670.1071179000028,670.120985900001,675.0018511000017,674.9727211000027,,,,Casey,001,2025-03-08_17h57.48.792,pleaseworkstroopcontrol,2024.2.4,60.07857075424197,2025-03-08 17h58.03.975243 -0800,
test,inconsistent,37,red,green,word,z,800,2000,157,39,2,z,1,0.5387163999985205,None,2,39,157,36,675.0018511000017,,,,,,,,,674.9949765000019,675.0018511000017,675.0018511000017,0.02231960000062827,675.1884826999994,675.1884826999994,675.5574780000024,z,1,0.5387163999985205,None,2.8237368278209294,675.5581624000006,675.5717197000013,678.4061471000023,678.3730697999999,,,,Casey,001,2025-03-08_17h57.48.792,pleaseworkstroopcontrol,2024.2.4,60.07857075424197,2025-03-08 17h58.03.975243 -0800,
test,consistent,7,green,green,word,m,800,2000,158,40,2,m,1,0.6658366999981808,None,2,40,158,6,678.4061471000023,,,,,,,,,678.3994660000026,678.4061471000023,678.4061471000023,0.02651250000053551,678.5889306999998,678.5889306999998,679.074712900001,m,1,0.6658366999981808,None,4.390019342674496,679.0753928000013,679.0889763000014,683.4820878999999,683.4569469000016,,,,Casey,001,2025-03-08_17h57.48.792,pleaseworkstroopcontrol,2024.2.4,60.07857075424197,2025-03-08 17h58.03.975243 -0800,
test,inconsistent,44,green,red,word,z,800,2000,159,41,2,z,1,0.49034410000240314,None,2,41,159,43,683.4820878999999,,,,,,,,,683.476615800002,683.4820878999999,683.4820878999999,0.019741700001759455,683.6724448999994,683.6724448999994,683.9752435000009,z,1,0.49034410000240314,None,4.319524861426254,683.975883500003,683.9894325000023,688.3153803999994,688.2909115000002,,,,Casey,001,2025-03-08_17h57.48.792,pleaseworkstroopcontrol,2024.2.4,60.07857075424197,2025-03-08 17h58.03.975243 -0800,
test,inconsistent,42,green,yellow,word,z,800,2000,160,42,2,z,1,0.44614329999967595,None,2,42,160,41,688.3153803999994,,,,,,,,,688.308937400001,688.3153803999994,688.3153803999994,0.01828430000023218,688.5065315000029,688.5065315000029,688.7751845000021,z,1,0.44614329999967595,None,4.902864149852713,688.7758931000026,688.7898778000017,693.6975452000006,693.6742856000019,,,,Casey,001,2025-03-08_17h57.48.792,pleaseworkstroopcontrol,2024.2.4,60.07857075424197,2025-03-08 17h58.03.975243 -0800,
test,inconsistent,56,green,red,word,z,800,2000,161,43,2,z,1,0.48706400000082795,None,2,43,161,55,693.6975452000006,,,,,,,,,693.6910311000029,693.6975452000006,693.6975452000006,0.01698680000117747,693.8904660000007,693.8904660000007,694.1926982000005,z,1,0.48706400000082795,None,1.7261884970632977,694.1933344999998,694.2069762000028,695.9384086000027,695.9081999000009,,,,Casey,001,2025-03-08_17h57.48.792,pleaseworkstroopcontrol,2024.2.4,60.07857075424197,2025-03-08 17h58.03.975243 -0800,
test,inconsistent,33,yellow,green,word,z,800,2000,162,44,2,z,1,0.6469926999998279,None,2,44,162,32,695.9384086000027,,,,,,,,,695.9296963000015,695.9384086000027,695.9384086000027,0.02177529999971739,696.1239213000008,696.1239213000008,696.5928072000024,z,1,0.6469926999998279,None,3.799726909174305,696.5935710000012,696.6073274000009,700.4277887000026,700.3921427000023,,,,Casey,001,2025-03-08_17h57.48.792,pleaseworkstroopcontrol,2024.2.4,60.07857075424197,2025-03-08 17h58.03.975243 -0800,
test,consistent,51,red,red,word,m,800,2000,163,45,2,m,1,0.6911034000004292,None,2,45,163,50,700.4277887000026,,,,,,,,,700.4208953000016,700.4277887000026,700.4277887000026,0.02883990000191261,700.6077394000022,700.6077394000022,701.1262559000024,m,1,0.6911034000004292,None,1.7761586530224025,701.1269418000011,701.1410300000025,702.9195405999999,702.8924832000012,,,,Casey,001,2025-03-08_17h57.48.792,pleaseworkstroopcontrol,2024.2.4,60.07857075424197,2025-03-08 17h58.03.975243 -0800,
test,inconsistent,48,yellow,red,word,z,800,2000,164,46,2,z,1,0.5234235000025365,None,2,46,164,47,702.9195405999999,,,,,,,,,702.9117164000018,702.9195405999999,702.9195405999999,0.019483500000205822,703.1080234000001,703.1080234000001,703.4592639000002,z,1,0.5234235000025365,None,3.037931252917418,703.4596049000029,703.4739905000024,706.5267201000024,706.4930497000023,,,,Casey,001,2025-03-08_17h57.48.792,pleaseworkstroopcontrol,2024.2.4,60.07857075424197,2025-03-08 17h58.03.975243 -0800,
test,inconsistent,6,red,yellow,word,z,800,2000,165,47,2,z,1,0.606579999999667,None,2,47,165,5,706.5267201000024,,,,,,,,,706.5199089000016,706.5267201000024,706.5267201000024,0.026385499997559236,706.7084533000016,706.7084533000016,707.1438101000022,z,1,0.606579999999667,None,2.8471351428740213,707.1445267000017,707.1582273000022,710.0057460999997,709.976337600001,,,,Casey,001,2025-03-08_17h57.48.792,pleaseworkstroopcontrol,2024.2.4,60.07857075424197,2025-03-08 17h58.03.975243 -0800,
test,inconsistent,3,blue,red,word,z,800,2000,166,48,2,z,1,0.6406385999980557,None,2,48,166,2,710.0057460999997,,,,,,,,,709.9989862000002,710.0057460999997,710.0057460999997,0.022518899997521657,710.1919159000026,710.1919159000026,710.6607973999999,z,1,0.6406385999980557,None,2.3461468226198603,710.6615111000028,710.6752691000002,713.0354754,712.9932843999995,,,,Casey,001,2025-03-08_17h57.48.792,pleaseworkstroopcontrol,2024.2.4,60.07857075424197,2025-03-08 17h58.03.975243 -0800,
test,consistent,12,yellow,yellow,word,m,800,2000,167,49,2,m,1,0.6657355999996071,None,2,49,167,11,713.0354754,,,,,,,,,713.0283571,713.0354754,713.0354754,0.03510340000138967,713.2089153000015,713.2089153000015,713.7107729000018,m,1,0.6657355999996071,None,2.6365045892615693,713.7117154000007,713.7253744000009,716.3731149000014,716.3436710000024,,,,Casey,001,2025-03-08_17h57.48.792,pleaseworkstroopcontrol,2024.2.4,60.07857075424197,2025-03-08 17h58.03.975243 -0800,
test,consistent,34,green,green,word,m,800,2000,168,50,2,m,1,0.6559871999997995,None,2,50,168,33,716.3731149000014,,,,,,,,,716.3660168999995,716.3731149000014,716.3731149000014,0.022627900001680246,716.5594503000029,716.5594503000029,717.0451640000028,m,1,0.6559871999997995,None,3.4582845663671793,717.0464654999996,717.0592485000016,720.5233862999994,720.4939948000028,,,,Casey,001,2025-03-08_17h57.48.792,pleaseworkstroopcontrol,2024.2.4,60.07857075424197,2025-03-08 17h58.03.975243 -0800,
test,consistent,49,yellow,yellow,word,m,800,2000,169,51,2,z,0,0.5001029999984894,None,2,51,169,48,720.5233862999994,,,,,,,,,720.515515500003,720.5233862999994,720.5233862999994,0.02181660000132979,720.7097074000012,720.7097074000012,721.0285116000014,z,0,0.5001029999984894,None,3.480384561040157,721.029291400002,721.0430641000021,724.5295289999995,724.4944327000012,,,,Casey,001,2025-03-08_17h57.48.792,pleaseworkstroopcontrol,2024.2.4,60.07857075424197,2025-03-08 17h58.03.975243 -0800,
test,inconsistent,55,green,yellow,word,z,800,2000,170,52,2,z,1,0.5305832000012742,None,2,52,170,54,724.5295289999995,,,,,,,,,724.5218559999994,724.5295289999995,724.5295289999995,0.027610599998297403,724.7098799000014,724.7098799000014,725.0629337000028,z,1,0.5305832000012742,None,4.141035075891103,725.0637187000029,725.0765907999994,729.2229676999996,729.1949499000002,,,,Casey,001,2025-03-08_17h57.48.792,pleaseworkstroopcontrol,2024.2.4,60.07857075424197,2025-03-08 17h58.03.975243 -0800,
test,consistent,18,red,red,word,m,800,2000,171,53,2,m,1,0.6500175000001036,None,2,53,171,17,729.2229676999996,,,,,,,,,729.2169845000026,729.2229676999996,729.2229676999996,0.022090899998147506,729.4105710000003,729.4105710000003,729.8789679000001,m,1,0.6500175000001036,None,3.5559802185286182,729.8796097000013,729.8937136999994,733.4535552000016,733.4280455000007,,,,Casey,001,2025-03-08_17h57.48.792,pleaseworkstroopcontrol,2024.2.4,60.07857075424197,2025-03-08 17h58.03.975243 -0800,
test,inconsistent,22,red,yellow,word,z,800,2000,172,54,2,z,1,0.5606263000008767,None,2,54,172,21,733.4535552000016,,,,,,,,,733.4480427000017,733.4535552000016,733.4535552000016,0.020489999998972053,733.6273105,733.6273105,734.0293869000016,z,1,0.5606263000008767,None,4.52567810797495,734.0302513000024,734.0442137999999,738.5764804000028,738.5457738000005,,,,Casey,001,2025-03-08_17h57.48.792,pleaseworkstroopcontrol,2024.2.4,60.07857075424197,2025-03-08 17h58.03.975243 -0800,
test,inconsistent,14,yellow,blue,word,z,800,2000,173,55,2,z,1,0.551543199999287,None,2,55,173,13,738.5764804000028,,,,,,,,,738.5694492000002,738.5764804000028,738.5764804000028,0.023701999998593237,738.7613985000025,738.7613985000025,739.1300486,z,1,0.551543199999287,None,2.9960609654095545,739.1309127999994,739.1446848000014,742.1352318000027,742.1129063000008,,,,Casey,001,2025-03-08_17h57.48.792,pleaseworkstroopcontrol,2024.2.4,60.07857075424197,2025-03-08 17h58.03.975243 -0800,
test,inconsistent,15,yellow,red,word,z,800,2000,174,56,2,z,1,0.5467749999988882,None,2,56,174,14,742.1352318000027,,,,,,,,,742.1290188000021,742.1352318000027,742.1352318000027,0.016252399997028988,742.3283378000015,742.3283378000015,742.6968338000006,z,1,0.5467749999988882,None,5.4455344405605155,742.6977915999996,742.7118424,748.1544780000004,748.1298773000017,,,,Casey,001,2025-03-08_17h57.48.792,pleaseworkstroopcontrol,2024.2.4,60.07857075424197,2025-03-08 17h58.03.975243 -0800,
test,inconsistent,17,yellow,green,word,z,800,2000,175,57,2,z,1,0.5273477000009734,None,2,57,175,16,748.1544780000004,,,,,,,,,748.1490387000013,748.1544780000004,748.1544780000004,0.0191869999980554,748.3456136000023,748.3456136000023,748.6978348000011,z,1,0.5273477000009734,None,2.3656964482742326,748.6985392999995,748.7122847000028,751.0963181000006,751.0637824000005,,,,Casey,001,2025-03-08_17h57.48.792,pleaseworkstroopcontrol,2024.2.4,60.07857075424197,2025-03-08 17h58.03.975243 -0800,
test,consistent,1,red,red,word,m,800,2000,176,58,2,m,1,0.5889539999989211,None,2,58,176,0,751.0963181000006,,,,,,,,,751.0896878000021,751.0963181000006,751.0963181000006,0.02598030000081053,751.2790515000015,751.2790515000015,751.6981970000015,m,1,0.5889539999989211,None,4.306836736433419,751.6992738000008,751.7127050000017,756.0210538000028,755.9974957000013,,,,Casey,001,2025-03-08_17h57.48.792,pleaseworkstroopcontrol,2024.2.4,60.07857075424197,2025-03-08 17h58.03.975243 -0800,
test,consistent,45,red,red,word,m,800,2000,177,0,3,m,1,0.5603855999979714,None,3,0,177,44,756.0210538000028,,,,,,,,,756.0150200999997,756.0210538000028,756.0210538000028,0.01769169999897713,756.2132697000015,756.2132697000015,756.5987359000028,m,1,0.5603855999979714,None,1.5809465944316639,756.5996085000006,756.6131468000021,758.1926744000011,758.1649711999999,,,,Casey,001,2025-03-08_17h57.48.792,pleaseworkstroopcontrol,2024.2.4,60.07857075424197,2025-03-08 17h58.03.975243 -0800,
test,consistent,18,red,red,word,m,800,2000,178,1,3,m,1,0.42480049999721814,None,3,1,178,17,758.1926744000011,,,,,,,,,758.1871562000015,758.1926744000011,758.1926744000011,0.022257500000705477,758.3798432000003,758.3798432000003,758.6319234000002,m,1,0.42480049999721814,None,5.746343487564941,758.6326363000007,758.6468357000012,764.4039034000016,764.364663700002,,,,Casey,001,2025-03-08_17h57.48.792,pleaseworkstroopcontrol,2024.2.4,60.07857075424197,2025-03-08 17h58.03.975243 -0800,
test,inconsistent,22,red,yellow,word,z,800,2000,179,2,3,z,1,0.43519880000167177,None,3,2,179,21,764.4039034000016,,,,,,,,,764.399352700002,764.4039034000016,764.4039034000016,0.03460629999972298,764.5803761000025,764.5803761000025,764.8489559000009,z,1,0.43519880000167177,None,2.328470793889975,764.8496142000004,764.8639413000019,767.2096606000014,767.1651450000027,,,,Casey,001,2025-03-08_17h57.48.792,pleaseworkstroopcontrol,2024.2.4,60.07857075424197,2025-03-08 17h58.03.975243 -0800,
test,inconsistent,3,blue,red,word,z,800,2000,180,3,3,z,1,0.5290808999998262,None,3,3,180,2,767.2096606000014,,,,,,,,,767.2046259000017,767.2096606000014,767.2096606000014,0.03927100000146311,767.3804956000022,767.3804956000022,767.7499672000013,z,1,0.5290808999998262,None,5.848887827409381,767.7506753000016,767.7643014999994,773.6404106000009,773.5984325000027,,,,Casey,001,2025-03-08_17h57.48.792,pleaseworkstroopcontrol,2024.2.4,60.07857075424197,2025-03-08 17h58.03.975243 -0800,
test,consistent,40,yellow,yellow,word,m,800,2000,181,4,3,m,1,0.6301921000012953,None,3,4,181,39,773.6404106000009,,,,,,,,,773.6351203000013,773.6404106000009,773.6404106000009,0.03679470000133733,773.7982730000003,773.7982730000003,774.2834427000016,m,1,0.6301921000012953,None,4.722932147618638,774.2841990000015,774.2984550000001,779.0327928000006,778.9998930000002,,,,Casey,001,2025-03-08_17h57.48.792,pleaseworkstroopcontrol,2024.2.4,60.07857075424197,2025-03-08 17h58.03.975243 -0800,
test,inconsistent,8,black,yellow,word,z,800,2000,182,5,3,z,1,0.48225530000127037,None,3,5,182,7,779.0327928000006,,,,,,,,,779.0249699000015,779.0327928000006,779.0327928000006,0.025279900000896305,779.2153515000027,779.2153515000027,779.517949000001,z,1,0.48225530000127037,None,2.0253083147896946,779.5186767000014,779.5318976000017,781.5607902000011,781.5330767000014,,,,Casey,001,2025-03-08_17h57.48.792,pleaseworkstroopcontrol,2024.2.4,60.07857075424197,2025-03-08 17h58.03.975243 -0800,
test,inconsistent,48,yellow,red,word,z,800,2000,183,6,3,z,1,0.5701246000026003,None,3,6,183,47,781.5607902000011,,,,,,,,,781.5551487000012,781.5607902000011,781.5607902000011,0.021921499999734806,781.7489120999999,781.7489120999999,782.1342201000007,z,1,0.5701246000026003,None,5.400321073938755,782.1349725,782.1489146000022,787.5715049000028,787.5338306000012,,,,Casey,001,2025-03-08_17h57.48.792,pleaseworkstroopcontrol,2024.2.4,60.07857075424197,2025-03-08 17h58.03.975243 -0800,
test,inconsistent,9,red,blue,word,z,800,2000,184,7,3,z,1,0.5743027999997139,None,3,7,184,8,787.5715049000028,,,,,,,,,787.5648578,787.5715049000028,787.5715049000028,0.031124799999815878,787.7495761999999,787.7495761999999,788.1518185000023,z,1,0.5743027999997139,None,2.5545466017813174,788.1525220000003,788.1663664000007,790.7275684000015,790.7007484999995,,,,Casey,001,2025-03-08_17h57.48.792,pleaseworkstroopcontrol,2024.2.4,60.07857075424197,2025-03-08 17h58.03.975243 -0800,
test,inconsistent,53,red,yellow,word,z,800,2000,185,8,3,z,1,0.5352029999994556,None,3,8,185,52,790.7275684000015,,,,,,,,,790.7213697000007,790.7275684000015,790.7275684000015,0.020989799999370007,790.916398100002,790.916398100002,791.2688618000029,z,1,0.5352029999994556,None,2.072386086039616,791.2694966000017,791.2828958000027,793.3660163000022,793.3341973999995,,,,Casey,001,2025-03-08_17h57.48.792,pleaseworkstroopcontrol,2024.2.4,60.07857075424197,2025-03-08 17h58.03.975243 -0800,
test,consistent,38,blue,blue,word,m,800,2000,186,9,3,z,0,0.4951368000001821,None,3,9,186,37,793.3660163000022,,,,,,,,,793.3588421000022,793.3660163000022,793.3660163000022,0.0247851999993145,793.5500522000002,793.5500522000002,793.8688135000011,z,0,0.4951368000001821,None,3.515600420695728,793.8694856000002,793.8835485000018,797.4196763,797.3847043000023,,,,Casey,001,2025-03-08_17h57.48.792,pleaseworkstroopcontrol,2024.2.4,60.07857075424197,2025-03-08 17h58.03.975243 -0800,
test,inconsistent,20,red,green,word,z,800,2000,187,10,3,z,1,0.5961203999977442,None,3,10,187,19,797.4196763,,,,,,,,,797.4125548000011,797.4196763,797.4196763,0.027978199999779463,797.6007411000028,797.6007411000028,798.0195324000015,z,1,0.5961203999977442,None,5.32611154167943,798.0202919000003,798.0335745000011,803.3646365000022,803.3353294000008,,,,Casey,001,2025-03-08_17h57.48.792,pleaseworkstroopcontrol,2024.2.4,60.07857075424197,2025-03-08 17h58.03.975243 -0800,
test,consistent,47,blue,blue,word,m,800,2000,188,11,3,m,1,0.5506420999990951,None,3,11,188,46,803.3646365000022,,,,,,,,,803.3580215000002,803.3646365000022,803.3646365000022,0.022707599997374928,803.5512035000029,803.5512035000029,803.9202646000012,m,1,0.5506420999990951,None,3.076014616272237,803.9209626000011,803.9342792000025,807.0158518999997,806.9857260000026,,,,Casey,001,2025-03-08_17h57.48.792,pleaseworkstroopcontrol,2024.2.4,60.07857075424197,2025-03-08 17h58.03.975243 -0800,
test,inconsistent,17,yellow,green,word,z,800,2000,189,12,3,z,1,0.5207112999996752,None,3,12,189,16,807.0158518999997,,,,,,,,,807.0086867000027,807.0158518999997,807.0158518999997,0.023085300003003795,807.2016256999996,807.2016256999996,807.5536861,z,1,0.5207112999996752,None,3.865032295310356,807.5543620000026,807.5683289000008,811.4330990000017,811.4029881000024,,,,Casey,001,2025-03-08_17h57.48.792,pleaseworkstroopcontrol,2024.2.4,60.07857075424197,2025-03-08 17h58.03.975243 -0800,
test,consistent,54,green,green,word,m,800,2000,190,13,3,m,1,0.5794194000009156,None,3,13,190,53,811.4330990000017,,,,,,,,,811.4260568999998,811.4330990000017,811.4330990000017,0.023077599998941878,811.6186627000025,811.6186627000025,812.0208576000005,m,1,0.5794194000009156,None,5.666864474373126,812.0216409999994,812.034886700003,817.716811000002,817.6865233000026,,,,Casey,001,2025-03-08_17h57.48.792,pleaseworkstroopcontrol,2024.2.4,60.07857075424197,2025-03-08 17h58.03.975243 -0800,
test,inconsistent,5,orange,blue,word,z,800,2000,191,14,3,z,1,0.4511984999990091,None,3,14,191,4,817.716811000002,,,,,,,,,817.709264000001,817.716811000002,817.716811000002,0.022730100001354003,817.9026113,817.9026113,818.1716100000012,z,1,0.4511984999990091,None,1.6262588578380646,818.1723605000007,818.1857927000019,819.8332769000008,819.7872327000005,,,,Casey,001,2025-03-08_17h57.48.792,pleaseworkstroopcontrol,2024.2.4,60.07857075424197,2025-03-08 17h58.03.975243 -0800,
test,inconsistent,4,red,green,word,z,800,2000,192,15,3,m,0,0.540680699999939,None,3,15,192,3,819.8332769000008,,,,,,,,,819.8266848000021,819.8332769000008,819.8332769000008,0.039475300000049174,820.0026751000005,820.0026751000005,820.3879202999997,m,0,0.540680699999939,None,1.726424170835529,820.3885579000016,820.4027072999997,822.1333857000027,822.1041318000025,,,,Casey,001,2025-03-08_17h57.48.792,pleaseworkstroopcontrol,2024.2.4,60.07857075424197,2025-03-08 17h58.03.975243 -0800,
test,inconsistent,26,green,yellow,word,z,800,2000,193,16,3,z,1,0.757226300000184,None,3,16,193,25,822.1333857000027,,,,,,,,,822.1263851000003,822.1333857000027,822.1333857000027,0.022404999999707798,822.3197605999994,822.3197605999994,822.9056180000007,z,1,0.757226300000184,None,5.995856410645471,822.9063477000018,822.9196818000019,828.9196775000019,828.888036700002,,,,Casey,001,2025-03-08_17h57.48.792,pleaseworkstroopcontrol,2024.2.4,60.07857075424197,2025-03-08 17h58.03.975243 -0800,
test,consistent,28,yellow,yellow,word,m,800,2000,194,17,3,m,1,0.5576221000010264,None,3,17,194,27,828.9196775000019,,,,,,,,,828.9116797000024,828.9196775000019,828.9196775000019,0.023782200001733145,829.1034558000028,829.1034558000028,829.4890906,m,1,0.5576221000010264,None,5.212213617959223,829.4897751999997,829.5035478000027,834.7183212000018,834.6884925000013,,,,Casey,001,2025-03-08_17h57.48.792,pleaseworkstroopcontrol,2024.2.4,60.07857075424197,2025-03-08 17h58.03.975243 -0800,
test,inconsistent,42,green,yellow,word,z,800,2000,195,18,3,z,1,0.4956400000010035,None,3,18,195,41,834.7183212000018,,,,,,,,,834.7117541000007,834.7183212000018,834.7183212000018,0.023320500000409083,834.9042541000017,834.9042541000017,835.2219533000025,z,1,0.4956400000010035,None,4.189875535603134,835.2225099999996,835.2371476000008,839.4342738000014,839.4056302000026,,,,Casey,001,2025-03-08_17h57.48.792,pleaseworkstroopcontrol,2024.2.4,60.07857075424197,2025-03-08 17h58.03.975243 -0800,
test,consistent,1,red,red,word,m,800,2000,196,19,3,m,1,0.5701521000009961,None,3,19,196,0,839.4342738000014,,,,,,,,,839.4282364000028,839.4342738000014,839.4342738000014,0.022478099999716505,839.6215233000003,839.6215233000003,840.0076479000018,m,1,0.5701521000009961,None,1.640144108053771,840.0083591000002,840.0213817000003,841.6826524000026,841.6390987000013,,,,Casey,001,2025-03-08_17h57.48.792,pleaseworkstroopcontrol,2024.2.4,60.07857075424197,2025-03-08 17h58.03.975243 -0800,
test,inconsistent,24,blue,green,word,z,800,2000,197,20,3,z,1,0.5871502999980294,None,3,20,197,23,841.6826524000026,,,,,,,,,841.6760415000026,841.6826524000026,841.6826524000026,0.036927099998138146,841.8548303000025,841.8548303000025,842.2739211000007,z,1,0.5871502999980294,None,1.5524148704839882,842.2746454000007,842.2882344999998,843.8589582999994,843.8220706000029,,,,Casey,001,2025-03-08_17h57.48.792,pleaseworkstroopcontrol,2024.2.4,60.07857075424197,2025-03-08 17h58.03.975243 -0800,
test,consistent,35,red,red,word,m,800,2000,198,21,3,m,1,0.6053432000007888,None,3,21,198,34,843.8589582999994,,,,,,,,,843.8536215000022,843.8589582999994,843.8589582999994,0.03157199999986915,844.0216989,844.0216989,844.4743681,m,1,0.6053432000007888,None,1.7935966360567974,844.475150600003,844.4882768000025,846.2947277000021,846.2558717000029,,,,Casey,001,2025-03-08_17h57.48.792,pleaseworkstroopcontrol,2024.2.4,60.07857075424197,2025-03-08 17h58.03.975243 -0800,
test,consistent,43,green,green,word,m,800,2000,199,22,3,m,1,0.6978649000011501,None,3,22,199,42,846.2947277000021,,,,,,,,,846.2875349000024,846.2947277000021,846.2947277000021,0.03184539999710978,846.4720548000005,846.4720548000005,847.0077848000001,m,1,0.6978649000011501,None,4.871378437775984,847.0085493000006,847.0221046000006,851.9019456000024,851.8737747000014,,,,Casey,001,2025-03-08_17h57.48.792,pleaseworkstroopcontrol,2024.2.4,60.07857075424197,2025-03-08 17h58.03.975243 -0800,
test,inconsistent,14,yellow,blue,word,z,800,2000,200,23,3,z,1,0.4763985000026878,None,3,23,200,13,851.9019456000024,,,,,,,,,851.895272400001,851.9019456000024,851.9019456000024,0.021680400001059752,852.0890123000027,852.0890123000027,852.3911721000004,z,1,0.4763985000026878,None,4.607443627854884,852.3918086000012,852.405947700001,857.0585199000016,856.9904999999999,,,,Casey,001,2025-03-08_17h57.48.792,pleaseworkstroopcontrol,2024.2.4,60.07857075424197,2025-03-08 17h58.03.975243 -0800,
